logMicros,flightMicros,logDt,state,voltage,yaw,pitch,roll,aX,aY,aZ,gX,gY,gZ,altitude,temp,yPID,zPID,yServo,zServo,pyro1,pyro2,pyro1Cont,pyro2Cont,abort
61658228,0,17046,1,8.16,0.008,-0.003,-0.019,9.57,0.33,-0.27,0,0,0,-0.27,14.06,0,0,0,0,0,0,1,0,0
61676050,0,17822,1,8.16,0.008,-0.003,-0.019,9.55,0.32,-0.24,0,0,0,-0.27,14.07,0,0,0,0,0,0,1,0,0
61693369,0,17319,1,8.18,0.008,-0.003,-0.019,9.57,0.3,-0.26,0,0,0,-0.25,14.07,0,0,0,0,0,0,1,0,0
61710493,0,17124,1,8.17,0.008,-0.003,-0.019,9.56,0.32,-0.3,0,0,0,-0.27,14.05,0,0,0,0,0,0,1,0,0
61727538,0,17045,1,8.18,0.008,-0.003,-0.019,9.55,0.34,-0.3,0,0,0,-0.3,14.07,0,0,0,0,0,0,1,0,0
61745033,0,17495,1,8.17,0.008,-0.003,-0.019,9.58,0.35,-0.29,0,0,0,-0.3,14.06,0,0,0,0,0,0,1,0,0
61762313,0,17280,1,8.18,0.008,-0.003,-0.019,9.58,0.34,-0.28,0,0,0,-0.29,14.06,0,0,0,0,0,0,1,0,0
61779281,0,16968,1,8.18,0.008,-0.003,-0.019,9.57,0.36,-0.27,0,0,0,-0.29,14.06,0,0,0,0,0,0,1,0,0
61796271,0,16990,1,8.16,0.008,-0.003,-0.019,9.56,0.34,-0.26,0,0,0,-0.26,14.06,0,0,0,0,0,0,1,0,0
61814615,0,18344,1,8.17,0.008,-0.003,-0.02,9.55,0.32,-0.27,0,0,0,-0.27,14.06,0,0,0,0,0,0,1,0,0
61831661,0,17046,1,8.18,0.008,-0.003,-0.02,9.58,0.32,-0.25,0,0,0,-0.27,14.06,0,0,0,0,0,0,1,0,0
61849404,0,17743,1,8.17,0.008,-0.003,-0.02,9.57,0.35,-0.28,0,0,0,-0.26,14.06,0,0,0,0,0,0,1,0,0
61868362,0,18958,1,8.17,0.008,-0.003,-0.02,9.52,0.37,-0.29,0,0,0,-0.24,14.06,0,0,0,0,0,0,1,0,0
61885464,0,17102,1,8.16,0.008,-0.003,-0.02,9.56,0.38,-0.27,0,0,0,-0.23,14.07,0,0,0,0,0,0,1,0,0
61904363,0,18899,1,8.15,0.008,-0.003,-0.02,9.56,0.35,-0.28,0,0,0,-0.27,14.07,0,0,0,0,0,0,1,0,0
61923841,0,19478,1,8.17,0.008,-0.003,-0.02,9.56,0.34,-0.25,0,0,0,-0.27,14.06,0,0,0,0,0,0,1,0,0
61942057,0,18216,1,8.18,0.008,-0.003,-0.02,9.58,0.33,-0.28,0,0,0,-0.28,14.07,0,0,0,0,0,0,1,0,0
61961800,0,19743,1,8.18,0.008,-0.003,-0.02,9.56,0.33,-0.27,0,0,0,-0.27,14.08,0,0,0,0,0,0,1,0,0
61979234,0,17434,1,8.18,0.008,-0.003,-0.019,9.57,0.31,-0.25,0,0,0,-0.27,14.08,0,0,0,0,0,0,1,0,0
61996302,0,17068,1,8.17,0.008,-0.003,-0.02,9.56,0.35,-0.27,0,0,0,-0.27,14.07,0,0,0,0,0,0,1,0,0
62013404,0,17102,1,8.17,0.008,-0.003,-0.019,9.57,0.36,-0.27,0,0,0,-0.29,14.06,0,0,0,0,0,0,1,0,0
62031421,0,18017,1,8.18,0.008,-0.003,-0.02,9.55,0.37,-0.28,0,0,0,-0.27,14.06,0,0,0,0,0,0,1,0,0
62048610,0,17189,1,8.16,0.008,-0.003,-0.02,9.55,0.35,-0.27,0,0,0,-0.25,14.06,0,0,0,0,0,0,1,0,0
62065734,0,17124,1,8.17,0.008,-0.003,-0.02,9.55,0.34,-0.25,0,0,0.01,-0.21,14.05,0,0,0,0,0,0,1,0,0
62083620,0,17886,1,8.17,0.008,-0.003,-0.02,9.54,0.34,-0.27,-0.01,0,0,-0.23,14.07,0,0,0,0,0,0,1,0,0
62100312,0,16692,1,8.18,0.008,-0.003,-0.02,9.56,0.34,-0.27,0,0,0,-0.22,14.06,0,0,0,0,0,0,1,0,0
62117697,0,17385,1,8.18,0.008,-0.003,-0.02,9.56,0.32,-0.29,0,0,0,-0.22,14.06,0,0,0,0,0,0,1,0,0
62134750,0,17053,1,8.18,0.008,-0.003,-0.02,9.56,0.34,-0.28,0,0,0,-0.23,14.07,0,0,0,0,0,0,1,0,0
62152581,0,17831,1,8.17,0.008,-0.003,-0.02,9.55,0.36,-0.26,0,0,0,-0.22,14.06,0,0,0,0,0,0,1,0,0
62169593,0,17012,1,8.19,0.008,-0.002,-0.02,9.56,0.36,-0.23,0,0,0,-0.23,14.07,0,0,0,0,0,0,1,0,0
62189069,0,19476,1,8.16,0.008,-0.002,-0.02,9.54,0.32,-0.27,0,0,0,-0.23,14.05,0,0,0,0,0,0,1,0,0
62205794,0,16725,1,8.18,0.008,-0.002,-0.02,9.57,0.31,-0.29,0,0,0,-0.23,14.06,0,0,0,0,0,0,1,0,0
62224818,0,19024,1,8.17,0.008,-0.002,-0.02,9.55,0.33,-0.31,0,0,0,-0.25,14.08,0,0,0,0,0,0,1,0,0
62245136,0,20318,1,8.17,0.008,-0.002,-0.02,9.56,0.32,-0.31,0,0,0,-0.24,14.08,0,0,0,0,0,0,1,0,0
62262238,0,17102,1,8.17,0.008,-0.002,-0.02,9.56,0.33,-0.25,0,0,0,-0.24,14.07,0,0,0,0,0,0,1,0,0
62279552,0,17314,1,8.17,0.008,-0.002,-0.02,9.55,0.35,-0.25,0,0,0,-0.24,14.07,0,0,0,0,0,0,1,0,0
62297428,0,17876,1,8.17,0.008,-0.002,-0.02,9.59,0.32,-0.25,0,0,0,-0.25,14.07,0,0,0,0,0,0,1,0,0
62314795,0,17367,1,8.17,0.008,-0.002,-0.02,9.56,0.34,-0.3,0,0,0.01,-0.24,14.06,0,0,0,0,0,0,1,0,0
62332592,0,17797,1,8.16,0.008,-0.003,-0.02,9.55,0.33,-0.33,0,0,0.01,-0.23,14.07,0,0,0,0,0,0,1,0,0
62349967,0,17375,1,8.18,0.008,-0.003,-0.02,9.56,0.32,-0.29,0,0,0.01,-0.23,14.06,0,0,0,0,0,0,1,0,0
62367035,0,17068,1,8.17,0.008,-0.003,-0.02,9.56,0.33,-0.25,0,0,0,-0.24,14.07,0,0,0,0,0,0,1,0,0
62383919,0,16884,1,8.17,0.008,-0.003,-0.02,9.58,0.34,-0.22,0,0,0,-0.25,14.07,0,0,0,0,0,0,1,0,0
62401663,0,17744,1,8.16,0.008,-0.003,-0.02,9.6,0.36,-0.25,0,0,0,-0.24,14.06,0,0,0,0,0,0,1,0,0
62418709,0,17046,1,8.16,0.008,-0.003,-0.02,9.55,0.37,-0.27,0,0,0,-0.24,14.06,0,0,0,0,0,0,1,0,0
62435989,0,17280,1,8.17,0.008,-0.003,-0.02,9.56,0.36,-0.3,0,0,0,-0.24,14.07,0,0,0,0,0,0,1,0,0
62453091,0,17102,1,8.17,0.008,-0.003,-0.02,9.56,0.3,-0.31,0,0,0,-0.22,14.06,0,0,0,0,0,0,1,0,0
62470174,0,17083,1,8.18,0.008,-0.003,-0.02,9.55,0.31,-0.25,0,0,0,-0.22,14.08,0,0,0,0,0,0,1,0,0
62487487,0,17313,1,8.17,0.008,-0.003,-0.02,9.56,0.32,-0.24,0,0,0,-0.21,14.07,0,0,0,0,0,0,1,0,0
62505693,0,18206,1,8.17,0.008,-0.003,-0.02,9.57,0.33,-0.23,0,0,0,-0.2,14.07,0,0,0,0,0,0,1,0,0
62524386,0,18693,1,8.18,0.008,-0.003,-0.02,9.56,0.36,-0.29,0,0,0,-0.18,14.07,0,0,0,0,0,0,1,0,0
62542217,0,17831,1,8.17,0.008,-0.003,-0.02,9.57,0.37,-0.32,0,0,0,-0.18,14.07,0,0,0,0,0,0,1,0,0
62559191,0,16974,1,8.17,0.008,-0.003,-0.02,9.55,0.34,-0.3,0,0,0,-0.18,14.07,0,0,0,0,0,0,1,0,0
62576993,0,17802,1,8.18,0.008,-0.003,-0.02,9.56,0.33,-0.25,0,0,0,-0.18,14.07,0,0,0,0,0,0,1,0,0
62594061,0,17068,1,8.17,0.008,-0.003,-0.02,9.55,0.34,-0.24,0,0,0,-0.17,14.07,0,0,0,0,0,0,1,0,0
62613595,0,19534,1,8.18,0.008,-0.003,-0.02,9.58,0.32,-0.25,0,0,0,-0.2,14.09,0,0,0,0,0,0,1,0,0
62630585,0,16990,1,8.17,0.008,-0.003,-0.02,9.56,0.34,-0.28,0,0,0,-0.19,14.08,0,0,0,0,0,0,1,0,0
62648021,0,17436,1,8.18,0.008,-0.003,-0.02,9.57,0.33,-0.3,0,0,0,-0.21,14.08,0,0,0,0,0,0,1,0,0
62665191,0,17170,1,8.16,0.008,-0.003,-0.02,9.54,0.37,-0.31,0,0,0,-0.22,14.08,0,0,0,0,0,0,1,0,0
62684668,0,19477,1,8.16,0.008,-0.003,-0.02,9.57,0.36,-0.28,0,0,0,-0.22,14.09,0,0,0,0,0,0,1,0,0
62702145,0,17477,1,8.18,0.008,-0.003,-0.02,9.57,0.35,-0.25,0,0,0,-0.23,14.07,0,0,0,0,0,0,1,0,0
62719191,0,17046,1,8.18,0.008,-0.003,-0.02,9.56,0.33,-0.25,0,0,0,-0.23,14.07,0,0,0,0,0,0,1,0,0
62736842,0,17651,1,8.17,0.008,-0.003,-0.02,9.56,0.33,-0.26,0,0,0,-0.24,14.07,0,0,0,0,0,0,1,0,0
62754266,0,17424,1,8.17,0.009,-0.003,-0.02,9.56,0.31,-0.3,0,0,0,-0.25,14.07,0,0,0,0,0,0,1,0,0
62771278,0,17012,1,8.17,0.009,-0.003,-0.02,9.56,0.33,-0.3,0,0,0,-0.27,14.09,0,0,0,0,0,0,1,0,0
62789220,0,17942,1,8.17,0.009,-0.003,-0.02,9.56,0.33,-0.26,0,0,0,-0.28,14.08,0,0,0,0,0,0,1,0,0
62806003,0,16783,1,8.17,0.009,-0.003,-0.02,9.57,0.37,-0.26,0,0,0,-0.29,14.08,0,0,0,0,0,0,1,0,0
62823059,0,17056,1,8.18,0.009,-0.003,-0.02,9.57,0.35,-0.27,0,0,0,-0.3,14.08,0,0,0,0,0,0,1,0,0
62840802,0,17743,1,8.17,0.009,-0.003,-0.02,9.58,0.34,-0.27,0,0,0,-0.34,14.08,0,0,0,0,0,0,1,0,0
62857904,0,17102,1,8.17,0.009,-0.003,-0.02,9.55,0.32,-0.3,-0.01,0,0,-0.34,14.08,0,0,0,0,0,0,1,0,0
62875303,0,17399,1,8.17,0.009,-0.003,-0.02,9.56,0.35,-0.27,-0.01,0,0,-0.37,14.1,0,0,0,0,0,0,1,0,0
62892461,0,17158,1,8.17,0.009,-0.003,-0.02,9.56,0.34,-0.28,0,0,0,-0.36,14.07,0,0,0,0,0,0,1,0,0
62909692,0,17231,1,8.17,0.009,-0.003,-0.02,9.55,0.32,-0.27,0,0,0,-0.37,14.08,0,0,0,0,0,0,1,0,0
62927005,0,17313,1,8.17,0.009,-0.003,-0.02,9.57,0.38,-0.25,0,0,0,-0.36,14.08,0,0,0,0,0,0,1,0,0
62945754,0,18749,1,8.18,0.009,-0.003,-0.02,9.58,0.33,-0.25,0,0,0,-0.35,14.07,0,0,0,0,0,0,1,0,0
62962553,0,16799,1,8.17,0.009,-0.003,-0.02,9.57,0.34,-0.25,0,0,0,-0.33,14.08,0,0,0,0,0,0,1,0,0
62979974,0,17421,1,8.17,0.009,-0.003,-0.02,9.56,0.32,-0.29,0,0,0,-0.33,14.08,0,0,0,0,0,0,1,0,0
62998882,0,18908,1,8.17,0.009,-0.003,-0.02,9.54,0.33,-0.29,0,0,0,-0.32,14.08,0,0,0,0,0,0,1,0,0
63017904,0,19022,1,8.18,0.009,-0.003,-0.02,9.57,0.33,-0.25,0,0,0,-0.32,14.09,0,0,0,0,0,0,1,0,0
63034873,0,16969,1,8.17,0.009,-0.003,-0.02,9.56,0.34,-0.27,0,0,-0.01,-0.32,14.06,0,0,0,0,0,0,1,0,0
63052782,0,17909,1,8.18,0.009,-0.003,-0.02,9.57,0.36,-0.26,0,0,0,-0.31,14.08,0,0,0,0,0,0,1,0,0
63069940,0,17158,1,8.17,0.009,-0.003,-0.02,9.57,0.34,-0.27,0,0,0,-0.32,14.09,0,0,0,0,0,0,1,0,0
63087998,0,18058,1,8.17,0.009,-0.003,-0.02,9.56,0.36,-0.27,0,0,0,-0.31,14.08,0,0,0,0,0,0,1,0,0
63104951,0,16953,1,8.17,0.009,-0.003,-0.02,9.56,0.34,-0.31,0,0,0,-0.32,14.08,0,0,0,0,0,0,1,0,0
63121644,0,16693,1,8.17,0.009,-0.003,-0.02,9.57,0.34,-0.27,0,0,0,-0.32,14.08,0,0,0,0,0,0,1,0,0
63138689,0,17045,1,8.17,0.009,-0.003,-0.02,9.55,0.32,-0.28,0,0,0,-0.32,14.08,0,0,0,0,0,0,1,0,0
63156485,0,17796,1,8.18,0.009,-0.003,-0.02,9.56,0.33,-0.28,0,0,0,-0.32,14.08,0,0,0,0,0,0,1,0,0
63173536,0,17051,1,8.18,0.009,-0.003,-0.02,9.55,0.37,-0.28,0,0,0,-0.31,14.09,0,0,0,0,0,0,1,0,0
63191322,0,17786,1,8.17,0.009,-0.003,-0.02,9.57,0.37,-0.27,0,0,0,-0.32,14.09,0,0,0,0,0,0,1,0,0
63208313,0,16991,1,8.17,0.009,-0.003,-0.02,9.57,0.37,-0.26,0,0,0,-0.31,14.08,0,0,0,0,0,0,1,0,0
63225436,0,17123,1,8.17,0.009,-0.003,-0.02,9.55,0.34,-0.27,0,0,0,-0.32,14.09,0,0,0,0,0,0,1,0,0
63242483,0,17047,1,8.18,0.009,-0.003,-0.02,9.55,0.34,-0.27,0,0,0,-0.32,14.08,0,0,0,0,0,0,1,0,0
63260303,0,17820,1,8.18,0.009,-0.003,-0.02,9.56,0.31,-0.28,-0.01,0,0,-0.33,14.07,0,0,0,0,0,0,1,0,0
63277729,0,17426,1,8.18,0.009,-0.003,-0.02,9.53,0.35,-0.29,0,0,0,-0.33,14.07,0,0,0,0,0,0,1,0,0
63294796,0,17067,1,8.17,0.009,-0.003,-0.02,9.57,0.34,-0.28,0,0,0,-0.32,14.08,0,0,0,0,0,0,1,0,0
63312010,0,17214,1,8.17,0.009,-0.003,-0.02,9.55,0.36,-0.25,0,0,0,-0.32,14.09,0,0,0,0,0,0,1,0,0
63328884,0,16874,1,8.17,0.009,-0.002,-0.02,9.54,0.35,-0.27,0,0,0,-0.31,14.08,0,0,0,0,0,0,1,0,0
63346308,0,17424,1,8.18,0.009,-0.002,-0.02,9.57,0.32,-0.24,0,0,0,-0.31,14.09,0,0,0,0,0,0,1,0,0
63365330,0,19022,1,8.17,0.009,-0.002,-0.02,9.55,0.34,-0.28,0,0,0,-0.33,14.08,0,0,0,0,0,0,1,0,0
63384752,0,19422,1,8.16,0.009,-0.002,-0.02,9.56,0.32,-0.27,0,0,0,-0.34,14.09,0,0,0,0,0,0,1,0,0
63404721,0,19969,1,8.17,0.009,-0.002,-0.02,9.58,0.33,-0.27,0,0,0,-0.35,14.09,0,0,0,0,0,0,1,0,0
63424143,0,19422,1,8.17,0.009,-0.002,-0.02,9.56,0.34,-0.27,0,0,0,-0.34,14.09,0,0,0,0,0,0,1,0,0
63442713,0,18570,1,8.18,0.009,-0.002,-0.02,9.54,0.38,-0.27,0,0,0,-0.35,14.08,0,0,0,0,0,0,1,0,0
63460089,0,17376,1,8.16,0.009,-0.002,-0.02,9.56,0.36,-0.25,0,0,0,-0.34,14.09,0,0,0,0,0,0,1,0,0
63477157,0,17068,1,8.16,0.009,-0.002,-0.02,9.58,0.33,-0.27,0,0,0,-0.34,14.09,0,0,0,0,0,0,1,0,0
63493903,0,16746,1,8.17,0.009,-0.002,-0.02,9.56,0.34,-0.26,0,0,0,-0.36,14.08,0,0,0,0,0,0,1,0,0
63512708,0,18805,1,8.17,0.009,-0.003,-0.021,9.55,0.32,-0.28,-0.01,0,0,-0.35,14.09,0,0,0,0,0,0,1,0,0
63529445,0,16737,1,8.16,0.009,-0.003,-0.021,9.57,0.31,-0.27,0,0,0,-0.35,14.09,0,0,0,0,0,0,1,0,0
63546956,0,17511,1,8.18,0.009,-0.003,-0.021,9.57,0.33,-0.26,0,0,0,-0.33,14.09,0,0,0,0,0,0,1,0,0
63563675,0,16719,1,8.18,0.009,-0.003,-0.021,9.56,0.36,-0.27,0,0,0,-0.35,14.09,0,0,0,0,0,0,1,0,0
63581096,0,17421,1,8.18,0.009,-0.002,-0.021,9.56,0.37,-0.25,0,0,0,-0.36,14.11,0,0,0,0,0,0,1,0,0
63598141,0,17045,1,8.18,0.009,-0.002,-0.021,9.57,0.33,-0.27,0,0,0,-0.36,14.11,0,0,0,0,0,0,1,0,0
63615044,0,16903,1,8.18,0.009,-0.003,-0.021,9.57,0.32,-0.28,0,0,0,-0.35,14.09,0,0,0,0,0,0,1,0,0
63631732,0,16688,1,8.17,0.009,-0.003,-0.021,9.57,0.33,-0.27,0,0,0,-0.36,14.08,0,0,0,0,0,0,1,0,0
63649584,0,17852,1,8.17,0.009,-0.003,-0.021,9.53,0.32,-0.27,0,0,0,-0.38,14.09,0,0,0,0,0,0,1,0,0
63666630,0,17046,1,8.17,0.009,-0.003,-0.021,9.57,0.35,-0.29,0,0,0,-0.38,14.11,0,0,0,0,0,0,1,0,0
63685322,0,18692,1,8.17,0.009,-0.002,-0.021,9.57,0.34,-0.27,0,0,0,-0.36,14.08,0,0,0,0,0,0,1,0,0
63702973,0,17651,1,8.16,0.009,-0.002,-0.021,9.56,0.36,-0.25,0,0,0,-0.34,14.09,0,0,0,0,0,0,1,0,0
63719666,0,16693,1,8.16,0.009,-0.003,-0.021,9.58,0.35,-0.25,0,-0.01,0,-0.34,14.09,0,0,0,0,0,0,1,0,0
63736713,0,17047,1,8.17,0.009,-0.003,-0.021,9.54,0.34,-0.3,0,0,0,-0.34,14.09,0,0,0,0,0,0,1,0,0
63753837,0,17124,1,8.18,0.009,-0.003,-0.021,9.55,0.33,-0.26,0,0,0,-0.37,14.09,0,0,0,0,0,0,1,0,0
63770883,0,17046,1,8.17,0.009,-0.003,-0.021,9.56,0.3,-0.28,0,0,0,-0.39,14.09,0,0,0,0,0,0,1,0,0
63788547,0,17664,1,8.19,0.009,-0.003,-0.021,9.54,0.34,-0.25,0,0,0,-0.39,14.08,0,0,0,0,0,0,1,0,0
63807513,0,18966,1,8.17,0.009,-0.003,-0.021,9.58,0.35,-0.25,0,0,0,-0.34,14.1,0,0,0,0,0,0,1,0,0
63824559,0,17046,1,8.17,0.009,-0.003,-0.021,9.55,0.36,-0.28,0,0,0,-0.31,14.09,0,0,0,0,0,0,1,0,0
63843980,0,19421,1,8.16,0.009,-0.003,-0.021,9.57,0.34,-0.28,0,0,0,-0.3,14.09,0,0,0,0,0,0,1,0,0
63862007,0,18027,1,8.18,0.009,-0.003,-0.021,9.57,0.35,-0.27,0,0,0,-0.33,14.09,0,0,0,0,0,0,1,0,0
63879316,0,17309,1,8.18,0.009,-0.003,-0.021,9.58,0.33,-0.28,0,0,0,-0.33,14.09,0,0,0,0,0,0,1,0,0
63896715,0,17399,1,8.17,0.009,-0.003,-0.021,9.56,0.32,-0.28,0,0,0,-0.34,14.11,0,0,0,0,0,0,1,0,0
63913817,0,17102,1,8.18,0.009,-0.003,-0.021,9.55,0.34,-0.26,0,0,0,-0.36,14.11,0,0,0,0,0,0,1,0,0
63932207,0,18390,1,8.16,0.009,-0.003,-0.021,9.57,0.35,-0.25,0,0,0,-0.36,14.09,0,0,0,0,0,0,1,0,0
63950787,0,18580,1,8.16,0.009,-0.003,-0.021,9.55,0.37,-0.28,0,0,0,-0.37,14.1,0,0,0,0,0,0,1,0,0
63968124,0,17337,1,8.18,0.009,-0.003,-0.021,9.55,0.35,-0.27,0,0,0,-0.37,14.1,0,0,0,0,0,0,1,0,0
63985522,0,17398,1,8.17,0.009,-0.003,-0.021,9.56,0.34,-0.26,0,0,0,-0.35,14.09,0,0,0,0,0,0,1,0,0
64002568,0,17046,1,8.18,0.009,-0.003,-0.021,9.57,0.34,-0.27,0,0,0,-0.35,14.1,0,0,0,0,0,0,1,0,0
64019824,0,17256,1,8.18,0.009,-0.003,-0.021,9.56,0.31,-0.28,0,0,0,-0.35,14.1,0,0,0,0,0,0,1,0,0
64036871,0,17047,1,8.17,0.009,-0.003,-0.021,9.56,0.34,-0.28,0,0,0,-0.35,14.1,0,0,0,0,0,0,1,0,0
64054689,0,17818,1,8.18,0.009,-0.003,-0.021,9.56,0.33,-0.27,0,0,0,-0.3,14.08,0,0,0,0,0,0,1,0,0
64074432,0,19743,1,8.16,0.009,-0.003,-0.021,9.56,0.38,-0.3,0,0,0,-0.31,14.11,0,0,0,0,0,0,1,0,0
64091134,0,16702,1,8.17,0.009,-0.003,-0.021,9.56,0.36,-0.26,0,0,0,-0.34,14.1,0,0,0,0,0,0,1,0,0
64108930,0,17796,1,8.17,0.009,-0.003,-0.021,9.55,0.36,-0.29,0,0,0,-0.34,14.11,0,0,0,0,0,0,1,0,0
64126089,0,17159,1,8.17,0.009,-0.003,-0.021,9.58,0.3,-0.26,0,0,0,-0.32,14.08,0,0,0,0,0,0,1,0,0
64144734,0,18645,1,8.17,0.009,-0.003,-0.021,9.56,0.32,-0.28,0,0,0,-0.32,14.09,0,0,0,0,0,0,1,0,0
64162441,0,17707,1,8.16,0.009,-0.003,-0.021,9.57,0.33,-0.29,0,0,0,-0.32,14.1,0,0,0,0,0,0,1,0,0
64179134,0,16693,1,8.16,0.009,-0.003,-0.021,9.58,0.32,-0.28,0,0,0,-0.32,14.1,0,0,0,0,0,0,1,0,0
64197771,0,18637,1,8.16,0.009,-0.003,-0.021,9.58,0.38,-0.26,0,0,0,-0.34,14.11,0,0,0,0,0,0,1,0,0
64214929,0,17158,1,8.17,0.009,-0.003,-0.021,9.54,0.38,-0.27,0,0,0,-0.3,14.09,0,0,0,0,0,0,1,0,0
64232204,0,17275,1,8.17,0.009,-0.003,-0.021,9.54,0.35,-0.27,0,0,0,-0.3,14.09,0,0,0,0,0,0,1,0,0
64251954,0,19750,1,8.17,0.009,-0.003,-0.021,9.57,0.33,-0.26,0,0,0,-0.29,14.09,0,0,0,0,0,0,1,0,0
64268999,0,17045,1,8.17,0.009,-0.003,-0.021,9.56,0.31,-0.27,0,0,0,-0.27,14.1,0,0,0,0,0,0,1,0,0
64286908,0,17909,1,8.18,0.009,-0.003,-0.021,9.55,0.32,-0.3,0,0,0,-0.29,14.08,0,0,0,0,0,0,1,0,0
64304010,0,17102,1,8.17,0.009,-0.003,-0.021,9.55,0.37,-0.26,0,0,0,-0.27,14.1,0,0,0,0,0,0,1,0,0
64321255,0,17245,1,8.16,0.009,-0.003,-0.021,9.57,0.36,-0.28,0,0,0,-0.27,14.1,0,0,0,0,0,0,1,0,0
64338687,0,17432,1,8.16,0.009,-0.003,-0.021,9.54,0.35,-0.28,0,0,0,-0.27,14.1,0,0,0,0,0,0,1,0,0
64356652,0,17965,1,8.17,0.009,-0.003,-0.021,9.57,0.35,-0.25,0,0,0,-0.28,14.11,0,0,0,0,0,0,1,0,0
64375288,0,18636,1,8.17,0.009,-0.003,-0.021,9.54,0.33,-0.28,0,0,0,-0.31,14.1,0,0,0,0,0,0,1,0,0
64391975,0,16687,1,8.17,0.009,-0.003,-0.021,9.57,0.33,-0.28,0,0,0,-0.33,14.09,0,0,0,0,0,0,1,0,0
64409825,0,17850,1,8.17,0.009,-0.003,-0.021,9.57,0.32,-0.26,0,0,0,-0.32,14.1,0,0,0,0,0,0,1,0,0
64427202,0,17377,1,8.19,0.009,-0.003,-0.021,9.56,0.38,-0.26,0,0,0,-0.33,14.11,0,0,0,0,0,0,1,0,0
64445054,0,17852,1,8.17,0.009,-0.003,-0.021,9.57,0.33,-0.27,0,0,0,-0.34,14.1,0,0,0,0,0,0,1,0,0
64462091,0,17037,1,8.18,0.009,-0.003,-0.021,9.57,0.36,-0.27,0,0,0,-0.31,14.1,0,0,0,0,0,0,1,0,0
64479512,0,17421,1,8.18,0.009,-0.003,-0.021,9.57,0.36,-0.27,0,0,0,-0.31,14.1,0,0,0,0,0,0,1,0,0
64498958,0,19446,1,8.17,0.009,-0.003,-0.021,9.56,0.35,-0.27,0,0,0,-0.3,14.11,0,0,0,0,0,0,1,0,0
64516381,0,17423,1,8.18,0.009,-0.003,-0.021,9.52,0.31,-0.25,0.01,0,0,-0.31,14.11,0,0,0,0,0,0,1,0,0
64533393,0,17012,1,8.18,0.009,-0.003,-0.021,9.59,0.28,-0.26,0,0,0,-0.3,14.11,0,0,0,0,0,0,1,0,0
64550826,0,17433,1,8.18,0.009,-0.003,-0.021,9.58,0.34,-0.28,0,0,0,-0.31,14.11,0,0,0,0,0,0,1,0,0
64567949,0,17123,1,8.18,0.009,-0.003,-0.021,9.55,0.33,-0.26,0,0,0,-0.31,14.1,0,0,0,0,0,0,1,0,0
64585064,0,17115,1,8.18,0.009,-0.003,-0.021,9.57,0.37,-0.32,0,0,0,-0.3,14.11,0,0,0,0,0,0,1,0,0
64602078,0,17014,1,8.17,0.009,-0.003,-0.021,9.56,0.36,-0.29,0,0,0,-0.28,14.09,0,0,0,0,0,0,1,0,0
64619513,0,17435,1,8.17,0.009,-0.003,-0.021,9.55,0.36,-0.26,0,0,0,-0.28,14.09,0,0,0,0,0,0,1,0,0
64637309,0,17796,1,8.17,0.009,-0.003,-0.021,9.56,0.33,-0.27,0,0,0,-0.29,14.11,0,0,0,0,0,0,1,0,0
64654410,0,17101,1,8.17,0.009,-0.003,-0.021,9.56,0.31,-0.28,0,0,0,-0.3,14.1,0,0,0,0,0,0,1,0,0
64671588,0,17178,1,8.17,0.009,-0.003,-0.021,9.56,0.31,-0.26,0,0,0,-0.27,14.09,0,0,0,0,0,0,1,0,0
64688664,0,17076,1,8.17,0.009,-0.003,-0.021,9.54,0.33,-0.27,0,0,0,-0.28,14.1,0,0,0,0,0,0,1,0,0
64705732,0,17068,1,8.17,0.009,-0.003,-0.021,9.57,0.36,-0.27,0,0,0,-0.28,14.11,0,0,0,0,0,0,1,0,0
64722890,0,17158,1,8.17,0.009,-0.003,-0.021,9.58,0.36,-0.28,0,0,0,-0.28,14.09,0,0,0,0,0,0,1,0,0
64741152,0,18262,1,8.18,0.009,-0.003,-0.021,9.56,0.36,-0.28,0,0,0,-0.29,14.1,0,0,0,0,0,0,1,0,0
64757918,0,16766,1,8.18,0.009,-0.003,-0.021,9.57,0.36,-0.23,0,0,0,-0.29,14.1,0,0,0,0,0,0,1,0,0
64776212,0,18294,1,8.17,0.009,-0.003,-0.021,9.55,0.33,-0.27,0,0,0,-0.31,14.1,0,0,0,0,0,0,1,0,0
64794849,0,18637,1,8.17,0.009,-0.003,-0.021,9.57,0.32,-0.26,0,0,0,-0.31,14.11,0,0,0,0,0,0,1,0,0
64812063,0,17214,1,8.17,0.009,-0.003,-0.021,9.53,0.32,-0.28,0,0,0,-0.34,14.11,0,0,0,0,0,0,1,0,0
64829859,0,17796,1,8.18,0.009,-0.003,-0.021,9.57,0.32,-0.27,0,0,0,-0.31,14.09,0,0,0,0,0,0,1,0,0
64847208,0,17349,1,8.18,0.009,-0.003,-0.021,9.59,0.37,-0.27,0,0,0,-0.3,14.08,0,0,0,0,0,0,1,0,0
64864607,0,17399,1,8.17,0.009,-0.003,-0.021,9.55,0.36,-0.25,0,0,0,-0.31,14.1,0,0,0,0,0,0,1,0,0
64884868,0,20261,1,8.16,0.009,-0.003,-0.021,9.56,0.37,-0.29,0,0,0,-0.32,14.1,0,0,0,0,0,0,1,0,0
64902698,0,17830,1,8.16,0.009,-0.003,-0.021,9.57,0.3,-0.28,0,0,0,-0.33,14.11,0,0,0,0,0,0,1,0,0
64919766,0,17068,1,8.16,0.009,-0.003,-0.021,9.54,0.34,-0.27,0,0,0,-0.33,14.11,0,0,0,0,0,0,1,0,0
64938592,0,18826,1,8.17,0.009,-0.003,-0.021,9.55,0.31,-0.28,0,0,0,-0.34,14.11,0,0,0,0,0,0,1,0,0
64958447,0,19855,1,8.18,0.009,-0.003,-0.021,9.55,0.34,-0.29,-0.01,0,-0.01,-0.37,14.11,0,0,0,0,0,0,1,0,0
64975493,0,17046,1,8.17,0.009,-0.003,-0.021,9.56,0.36,-0.24,0,0,0,-0.38,14.11,0,0,0,0,0,0,1,0,0
64992190,0,16697,1,8.18,0.009,-0.003,-0.021,9.54,0.35,-0.25,0,0,0,-0.4,14.11,0,0,0,0,0,0,1,0,0
65009347,0,17157,1,8.17,0.009,-0.003,-0.021,9.58,0.33,-0.27,0,0,0,-0.42,14.11,0,0,0,0,0,0,1,0,0
65026536,0,17189,1,8.18,0.009,-0.003,-0.021,9.56,0.33,-0.27,0,0,0,-0.42,14.1,0,0,0,0,0,0,1,0,0
65043904,0,17368,1,8.18,0.009,-0.003,-0.021,9.58,0.31,-0.25,0,0,0,-0.44,14.12,0,0,0,0,0,0,1,0,0
65061381,0,17477,1,8.18,0.009,-0.003,-0.021,9.56,0.32,-0.29,0,0,0,-0.41,14.11,0,0,0,0,0,0,1,0,0
65078816,0,17435,1,8.18,0.009,-0.003,-0.021,9.56,0.32,-0.28,0,0,0,-0.41,14.11,0,0,0,0,0,0,1,0,0
65095882,0,17066,1,8.18,0.009,-0.003,-0.021,9.57,0.34,-0.28,0,0,0,-0.42,14.1,0,0,0,0,0,0,1,0,0
65113096,0,17214,1,8.17,0.009,-0.003,-0.021,9.57,0.35,-0.24,0,0,0,-0.42,14.09,0,0,0,0,0,0,1,0,0
65130487,0,17391,1,8.17,0.009,-0.003,-0.021,9.56,0.33,-0.26,0,0,0,-0.43,14.12,0,0,0,0,0,0,1,0,0
65147342,0,16855,1,8.17,0.009,-0.003,-0.021,9.56,0.37,-0.28,0,0,0,-0.44,14.12,0,0,0,0,0,0,1,0,0
65165249,0,17907,1,8.17,0.009,-0.003,-0.021,9.56,0.32,-0.25,0,0,0,-0.45,14.11,0,0,0,0,0,0,1,0,0
65182407,0,17158,1,8.17,0.009,-0.003,-0.021,9.58,0.29,-0.27,0,0,0,-0.45,14.11,0,0,0,0,0,0,1,0,0
65199376,0,16969,1,8.17,0.009,-0.003,-0.021,9.55,0.35,-0.27,0,0,0,-0.45,14.11,0,0,0,0,0,0,1,0,0
65216533,0,17157,1,8.17,0.009,-0.003,-0.021,9.56,0.34,-0.27,0,0,0,-0.45,14.11,0,0,0,0,0,0,1,0,0
65234385,0,17852,1,8.18,0.009,-0.003,-0.021,9.57,0.33,-0.27,0,0,0,-0.43,14.12,0,0,0,0,0,0,1,0,0
65251544,0,17159,1,8.17,0.009,-0.003,-0.021,9.57,0.37,-0.27,-0.01,0,0,-0.41,14.12,0,0,0,0,0,0,1,0,0
65268555,0,17011,1,8.18,0.009,-0.003,-0.021,9.57,0.34,-0.29,-0.01,0,0,-0.42,14.11,0,0,0,0,0,0,1,0,0
65285597,0,17042,1,8.16,0.009,-0.003,-0.022,9.55,0.34,-0.25,0,0,0,-0.41,14.12,0,0,0,0,0,0,1,0,0
65304565,0,18968,1,8.18,0.009,-0.003,-0.022,9.56,0.32,-0.27,0,0,0,-0.43,14.1,0,0,0,0,0,0,1,0,0
65324042,0,19477,1,8.16,0.009,-0.003,-0.022,9.56,0.31,-0.27,0,0,0,-0.46,14.12,0,0,0,0,0,0,1,0,0
65343144,0,19102,1,8.17,0.009,-0.003,-0.022,9.57,0.36,-0.28,0,0,0,-0.46,14.12,0,0,0,0,0,0,1,0,0
65360246,0,17102,1,8.18,0.009,-0.003,-0.022,9.58,0.34,-0.27,0,0,0,-0.46,14.1,0,0,0,0,0,0,1,0,0
65377040,0,16794,1,8.18,0.009,-0.003,-0.022,9.55,0.36,-0.29,0,0,0,-0.46,14.1,0,0,0,0,0,0,1,0,0
65393735,0,16695,1,8.17,0.009,-0.003,-0.022,9.57,0.35,-0.24,-0.01,0,0,-0.46,14.11,0,0,0,0,0,0,1,0,0
65411531,0,17796,1,8.16,0.009,-0.003,-0.022,9.58,0.33,-0.26,-0.01,0,0,-0.44,14.11,0,0,0,0,0,0,1,0,0
65428576,0,17045,1,8.16,0.009,-0.003,-0.022,9.57,0.31,-0.29,0,0,0,-0.43,14.09,0,0,0,0,0,0,1,0,0
65446585,0,18009,1,8.16,0.009,-0.003,-0.022,9.57,0.33,-0.29,0,0,0,-0.43,14.11,0,0,0,0,0,0,1,0,0
65463393,0,16808,1,8.17,0.009,-0.003,-0.022,9.56,0.34,-0.26,0,0,0,-0.42,14.11,0,0,0,0,0,0,1,0,0
65481192,0,17799,1,8.16,0.009,-0.003,-0.022,9.56,0.36,-0.27,0,0,0,-0.4,14.11,0,0,0,0,0,0,1,0,0
65498237,0,17045,1,8.16,0.009,-0.003,-0.022,9.57,0.36,-0.28,0,0,0,-0.4,14.11,0,0,0,0,0,0,1,0,0
65515514,0,17277,1,8.17,0.009,-0.003,-0.022,9.56,0.36,-0.25,0,0,0,-0.37,14.11,0,0,0,0,0,0,1,0,0
65532673,0,17159,1,8.17,0.009,-0.003,-0.022,9.56,0.35,-0.26,0,0,0,-0.36,14.11,0,0,0,0,0,0,1,0,0
65549847,0,17174,1,8.18,0.009,-0.003,-0.022,9.57,0.3,-0.28,0,0,0,-0.35,14.11,0,0,0,0,0,0,1,0,0
65567217,0,17370,1,8.17,0.009,-0.003,-0.022,9.57,0.34,-0.28,0.01,0,0,-0.36,14.11,0,0,0,0,0,0,1,0,0
65585125,0,17908,1,8.18,0.009,-0.003,-0.022,9.57,0.3,-0.27,0,0,0,-0.35,14.12,0,0,0,0,0,0,1,0,0
65602767,0,17642,1,8.16,0.009,-0.003,-0.022,9.56,0.33,-0.26,0,0,0,-0.33,14.11,0,0,0,0,0,0,1,0,0
65620244,0,17477,1,8.16,0.009,-0.003,-0.022,9.58,0.34,-0.27,0,0,0,-0.33,14.1,0,0,0,0,0,0,1,0,0
65638492,0,18248,1,8.16,0.009,-0.003,-0.022,9.54,0.35,-0.27,0,0,0,-0.33,14.1,0,0,0,0,0,0,1,0,0
65655923,0,17431,1,8.18,0.009,-0.003,-0.022,9.57,0.34,-0.26,0,0,0,-0.31,14.11,0,0,0,0,0,0,1,0,0
65673523,0,17600,1,8.17,0.009,-0.003,-0.022,9.57,0.31,-0.26,0,0,0,-0.3,14.11,0,0,0,0,0,0,1,0,0
65690513,0,16990,1,8.17,0.009,-0.003,-0.022,9.58,0.32,-0.28,0,0,0,-0.33,14.12,0,0,0,0,0,0,1,0,0
65707637,0,17124,1,8.17,0.009,-0.003,-0.022,9.55,0.31,-0.29,0,0,0,-0.3,14.11,0,0,0,0,0,0,1,0,0
65724827,0,17190,1,8.17,0.009,-0.003,-0.022,9.56,0.33,-0.27,0,0,0,-0.32,14.11,0,0,0,0,0,0,1,0,0
65742287,0,17460,1,8.16,0.009,-0.003,-0.022,9.56,0.35,-0.26,0,0,0,-0.29,14.1,0,0,0,0,0,0,1,0,0
65759389,0,17102,1,8.16,0.009,-0.003,-0.022,9.56,0.33,-0.26,0,0,0,-0.29,14.1,0,0,0,0,0,0,1,0,0
65776568,0,17179,1,8.16,0.009,-0.003,-0.022,9.58,0.34,-0.26,0,0,0,-0.29,14.12,0,0,0,0,0,0,1,0,0
65793614,0,17046,1,8.17,0.009,-0.003,-0.022,9.57,0.33,-0.27,0,0,0,-0.29,14.12,0,0,0,0,0,0,1,0,0
65811297,0,17683,1,8.17,0.009,-0.003,-0.022,9.55,0.32,-0.28,0,0,0,-0.31,14.12,0,0,0,0,0,0,1,0,0
65828609,0,17312,1,8.18,0.009,-0.003,-0.022,9.57,0.36,-0.26,0,0,0,-0.3,14.1,0,0,0,0,0,0,1,0,0
65845675,0,17066,1,8.18,0.009,-0.003,-0.022,9.56,0.32,-0.28,0,0,0,-0.32,14.13,0,0,0,0,0,0,1,0,0
65862778,0,17103,1,8.16,0.009,-0.003,-0.022,9.56,0.34,-0.28,0,0,0,-0.34,14.11,0,0,0,0,0,0,1,0,0
65880984,0,18206,1,8.17,0.009,-0.003,-0.022,9.55,0.36,-0.25,0,0,0,-0.36,14.13,0,0,0,0,0,0,1,0,0
65899972,0,18988,1,8.17,0.009,-0.003,-0.022,9.55,0.37,-0.31,-0.01,0,0,-0.36,14.13,0,0,0,0,0,0,1,0,0
65917340,0,17368,1,8.18,0.009,-0.003,-0.022,9.58,0.33,-0.28,0,0,0,-0.36,14.12,0,0,0,0,0,0,1,0,0
65935136,0,17796,1,8.17,0.009,-0.003,-0.022,9.57,0.29,-0.3,0,0,0,-0.35,14.1,0,0,0,0,0,0,1,0,0
65952238,0,17102,1,8.16,0.009,-0.003,-0.022,9.57,0.34,-0.27,0,0,0,-0.35,14.12,0,0,0,0,0,0,1,0,0
65969694,0,17456,1,8.17,0.009,-0.003,-0.022,9.55,0.33,-0.25,0,0,0,-0.31,14.11,0,0,0,0,0,0,1,0,0
65986813,0,17119,1,8.16,0.009,-0.003,-0.022,9.57,0.36,-0.23,0,0,0,-0.3,14.11,0,0,0,0,0,0,1,0,0
66005101,0,18288,1,8.17,0.009,-0.003,-0.022,9.56,0.37,-0.28,-0.01,0,0,-0.31,14.12,0,0,0,0,0,0,1,0,0
66022147,0,17046,1,8.18,0.009,-0.003,-0.022,9.56,0.37,-0.28,0,0,0,-0.31,14.12,0,0,0,0,0,0,1,0,0
66039093,0,16946,1,8.18,0.01,-0.003,-0.022,9.59,0.34,-0.28,0,0,0,-0.31,14.12,0,0,0,0,0,0,1,0,0
66056195,0,17102,1,8.17,0.01,-0.003,-0.022,9.57,0.33,-0.25,0,0,0,-0.29,14.11,0,0,0,0,0,0,1,0,0
66073329,0,17134,1,8.17,0.009,-0.003,-0.022,9.56,0.31,-0.27,0,0,0,-0.3,14.12,0,0,0,0,0,0,1,0,0
66090761,0,17432,1,8.17,0.009,-0.003,-0.022,9.56,0.33,-0.27,0,0,0,-0.29,14.11,0,0,0,0,0,0,1,0,0
66108172,0,17411,1,8.16,0.009,-0.003,-0.022,9.57,0.34,-0.27,0,0,0,-0.29,14.13,0,0,0,0,0,0,1,0,0
66125218,0,17046,1,8.18,0.009,-0.003,-0.022,9.55,0.37,-0.28,0,0,0,-0.27,14.12,0,0,0,0,0,0,1,0,0
66141911,0,16693,1,8.16,0.009,-0.003,-0.022,9.57,0.36,-0.29,0,0,0,-0.27,14.13,0,0,0,0,0,0,1,0,0
66159321,0,17410,1,8.16,0.009,-0.003,-0.022,9.55,0.35,-0.25,0,0,0,-0.27,14.13,0,0,0,0,0,0,1,0,0
66176719,0,17398,1,8.18,0.009,-0.003,-0.022,9.57,0.34,-0.27,0,0,0,-0.26,14.11,0,0,0,0,0,0,1,0,0
66193460,0,16741,1,8.17,0.009,-0.003,-0.022,9.57,0.32,-0.27,0,0,0,-0.25,14.12,0,0,0,0,0,0,1,0,0
66212209,0,18749,1,8.15,0.009,-0.003,-0.022,9.56,0.34,-0.25,0,0,0,-0.29,14.12,0,0,0,0,0,0,1,0,0
66230845,0,18636,1,8.17,0.009,-0.003,-0.022,9.56,0.35,-0.27,0,0,0,-0.26,14.12,0,0,0,0,0,0,1,0,0
66248152,0,17307,1,8.17,0.009,-0.003,-0.022,9.56,0.33,-0.27,0,0,0,-0.28,14.12,0,0,0,0,0,0,1,0,0
66265820,0,17668,1,8.18,0.009,-0.003,-0.022,9.55,0.35,-0.29,0,0,0,-0.28,14.12,0,0,0,0,0,0,1,0,0
66282866,0,17046,1,8.18,0.009,-0.003,-0.022,9.56,0.34,-0.27,0,0,0,-0.29,14.12,0,0,0,0,0,0,1,0,0
66300286,0,17420,1,8.17,0.009,-0.003,-0.022,9.55,0.34,-0.28,0,0,0,-0.33,14.12,0,0,0,0,0,0,1,0,0
66317333,0,17047,1,8.17,0.009,-0.003,-0.022,9.54,0.32,-0.27,0,0,0,-0.33,14.12,0,0,0,0,0,0,1,0,0
66334685,0,17352,1,8.16,0.009,-0.003,-0.022,9.58,0.32,-0.28,0,0,0,-0.33,14.13,0,0,0,0,0,0,1,0,0
66354428,0,19743,1,8.16,0.009,-0.003,-0.022,9.57,0.35,-0.28,0,0,0,-0.33,14.13,0,0,0,0,0,0,1,0,0
66371418,0,16990,1,8.17,0.009,-0.003,-0.022,9.56,0.34,-0.3,0,0,0,-0.34,14.13,0,0,0,0,0,0,1,0,0
66389382,0,17964,1,8.18,0.009,-0.003,-0.022,9.58,0.33,-0.28,0,0,0,-0.36,14.13,0,0,0,0,0,0,1,0,0
66406429,0,17047,1,8.17,0.009,-0.003,-0.022,9.57,0.36,-0.25,0,0,0,-0.36,14.13,0,0,0,0,0,0,1,0,0
66424788,0,18359,1,8.16,0.01,-0.003,-0.022,9.56,0.34,-0.25,0,0,0.01,-0.37,14.13,0,0,0,0,0,0,1,0,0
66442213,0,17425,1,8.17,0.01,-0.003,-0.022,9.58,0.33,-0.26,0,-0.01,0,-0.37,14.12,0,0,0,0,0,0,1,0,0
66459634,0,17421,1,8.17,0.01,-0.003,-0.022,9.54,0.32,-0.28,0,0,0,-0.37,14.12,0,0,0,0,0,0,1,0,0
66477543,0,17909,1,8.16,0.01,-0.003,-0.022,9.59,0.32,-0.29,0,0,0,-0.36,14.12,0,0,0,0,0,0,1,0,0
66495184,0,17641,1,8.17,0.01,-0.003,-0.022,9.56,0.34,-0.26,0,0,0,-0.36,14.12,0,0,0,0,0,0,1,0,0
66512593,0,17409,1,8.18,0.01,-0.003,-0.022,9.59,0.36,-0.28,0,0,0,-0.37,14.12,0,0,0,0,0,0,1,0,0
66531728,0,19135,1,8.17,0.01,-0.003,-0.022,9.55,0.34,-0.29,0,0,0,-0.36,14.12,0,0,0,0,0,0,1,0,0
66548718,0,16990,1,8.18,0.01,-0.003,-0.022,9.57,0.34,-0.29,0,0,0,-0.37,14.14,0,0,0,0,0,0,1,0,0
66566344,0,17626,1,8.16,0.01,-0.003,-0.022,9.58,0.33,-0.27,0,0,0,-0.37,14.12,0,0,0,0,0,0,1,0,0
66583390,0,17046,1,8.17,0.009,-0.003,-0.022,9.56,0.32,-0.28,0,0,0,-0.35,14.12,0,0,0,0,0,0,1,0,0
66601729,0,18339,1,8.18,0.009,-0.003,-0.022,9.55,0.34,-0.27,0,0,0,-0.34,14.13,0,0,0,0,0,0,1,0,0
66620695,0,18966,1,8.18,0.009,-0.003,-0.022,9.58,0.34,-0.24,0,0,0,-0.32,14.13,0,0,0,0,0,0,1,0,0
66638045,0,17350,1,8.18,0.009,-0.003,-0.022,9.55,0.35,-0.29,0,0,0,-0.32,14.13,0,0,0,0,0,0,1,0,0
66655112,0,17067,1,8.17,0.009,-0.003,-0.022,9.57,0.35,-0.27,0,0,0,-0.3,14.14,0,0,0,0,0,0,1,0,0
66672270,0,17158,1,8.17,0.009,-0.003,-0.022,9.56,0.33,-0.29,0,0,0,-0.3,14.12,0,0,0,0,0,0,1,0,0
66690280,0,18010,1,8.16,0.009,-0.003,-0.022,9.55,0.33,-0.27,0,0,0,-0.28,14.13,0,0,0,0,0,0,1,0,0
66707648,0,17368,1,8.18,0.009,-0.003,-0.022,9.56,0.33,-0.29,0,0,0,-0.28,14.13,0,0,0,0,0,0,1,0,0
66725059,0,17411,1,8.17,0.009,-0.003,-0.022,9.56,0.36,-0.28,0,0,0,-0.27,14.12,0,0,0,0,0,0,1,0,0
66742105,0,17046,1,8.17,0.009,-0.003,-0.022,9.56,0.35,-0.27,0,0,0,-0.25,14.12,0,0,0,0,0,0,1,0,0
66759527,0,17422,1,8.17,0.009,-0.003,-0.022,9.56,0.33,-0.25,0,0,0,-0.25,14.12,0,0,0,0,0,0,1,0,0
66779091,0,19564,1,8.17,0.01,-0.003,-0.022,9.55,0.36,-0.28,0,0,0,-0.25,14.13,0,0,0,0,0,0,1,0,0
66796098,0,17007,1,8.18,0.009,-0.003,-0.022,9.57,0.32,-0.27,0,0,0,-0.24,14.12,0,0,0,0,0,0,1,0,0
66814006,0,17908,1,8.17,0.009,-0.003,-0.022,9.56,0.33,-0.26,-0.01,0,0,-0.24,14.13,0,0,0,0,0,0,1,0,0
66830996,0,16990,1,8.17,0.01,-0.003,-0.022,9.56,0.32,-0.29,-0.01,0,0,-0.24,14.12,0,0,0,0,0,0,1,0,0
66848960,0,17964,1,8.18,0.01,-0.003,-0.022,9.55,0.33,-0.26,0,0,0,-0.24,14.13,0,0,0,0,0,0,1,0,0
66867443,0,18483,1,8.18,0.01,-0.003,-0.022,9.58,0.33,-0.27,0,0,0,-0.22,14.12,0,0,0,0,0,0,1,0,0
66884869,0,17426,1,8.17,0.01,-0.003,-0.023,9.56,0.33,-0.28,0,0,0,-0.21,14.13,0,0,0,0,0,0,1,0,0
66902291,0,17422,1,8.17,0.01,-0.003,-0.022,9.55,0.34,-0.28,0,0,0,-0.21,14.14,0,0,0,0,0,0,1,0,0
66919392,0,17101,1,8.17,0.01,-0.003,-0.022,9.59,0.34,-0.27,0,0,0,-0.21,14.14,0,0,0,0,0,0,1,0,0
66936461,0,17069,1,8.17,0.01,-0.003,-0.022,9.59,0.33,-0.26,0,0,0,-0.22,14.13,0,0,0,0,0,0,1,0,0
66953544,0,17083,1,8.17,0.01,-0.003,-0.022,9.55,0.34,-0.29,-0.01,0,0,-0.24,14.13,0,0,0,0,0,0,1,0,0
66970942,0,17398,1,8.17,0.01,-0.003,-0.023,9.56,0.33,-0.27,0,0,0,-0.22,14.13,0,0,0,0,0,0,1,0,0
66987988,0,17046,1,8.18,0.01,-0.003,-0.023,9.56,0.33,-0.25,0,0,0,-0.2,14.13,0,0,0,0,0,0,1,0,0
67005896,0,17908,1,8.18,0.01,-0.003,-0.023,9.57,0.35,-0.28,0,0,0,-0.22,14.14,0,0,0,0,0,0,1,0,0
67022715,0,16819,1,8.17,0.01,-0.003,-0.023,9.57,0.33,-0.27,0,0,0,-0.23,14.13,0,0,0,0,0,0,1,0,0
67041266,0,18551,1,8.17,0.01,-0.003,-0.022,9.57,0.33,-0.27,0,0,0,-0.21,14.13,0,0,0,0,0,0,1,0,0
67061074,0,19808,1,8.18,0.01,-0.003,-0.023,9.59,0.33,-0.26,0,0,0,-0.21,14.13,0,0,0,0,0,0,1,0,0
67079766,0,18692,1,8.18,0.01,-0.003,-0.023,9.59,0.35,-0.28,0,0,0,-0.21,14.13,0,0,0,0,0,0,1,0,0
67096532,0,16766,1,8.17,0.01,-0.003,-0.023,9.56,0.32,-0.28,0,0,0,-0.21,14.12,0,0,0,0,0,0,1,0,0
67114440,0,17908,1,8.16,0.01,-0.003,-0.023,9.59,0.32,-0.27,0,0,0,-0.22,14.13,0,0,0,0,0,0,1,0,0
67131937,0,17497,1,8.17,0.01,-0.003,-0.023,9.59,0.32,-0.27,0,0,0,-0.19,14.14,0,0,0,0,0,0,1,0,0
67149382,0,17445,1,8.16,0.01,-0.003,-0.023,9.61,0.36,-0.26,0,0,0,-0.17,14.12,0,0,0,0,0,0,1,0,0
67168459,0,19077,1,8.16,0.01,-0.003,-0.023,9.57,0.33,-0.29,0,0,0,-0.17,14.14,0,0,0,0,0,0,1,0,0
67185505,0,17046,1,8.16,0.01,-0.003,-0.023,9.59,0.34,-0.25,0,0,0,-0.16,14.14,0,0,0,0,0,0,1,0,0
67204198,0,18693,1,8.17,0.01,-0.003,-0.023,9.56,0.34,-0.29,0,0,0,-0.16,14.14,0,0,0,0,0,0,1,0,0
67222006,0,17808,1,8.17,0.01,-0.003,-0.023,9.54,0.34,-0.27,0,0,0,-0.18,14.14,0,0,0,0,0,0,1,0,0
67239022,0,17016,1,8.17,0.01,-0.003,-0.023,9.59,0.35,-0.29,0,0,0,-0.18,14.14,0,0,0,0,0,0,1,0,0
67257087,0,18065,1,8.18,0.01,-0.003,-0.023,9.55,0.34,-0.27,0,0,0,-0.23,14.14,0,0,0,0,0,0,1,0,0
67274301,0,17214,1,8.17,0.01,-0.003,-0.023,9.56,0.34,-0.26,0,0,0,-0.24,14.13,0,0,0,0,0,0,1,0,0
67292097,0,17796,1,8.18,0.01,-0.003,-0.023,9.55,0.37,-0.27,0,0,0,-0.28,14.14,0,0,0,0,0,0,1,0,0
67308912,0,16815,1,8.14,0.01,-0.003,-0.023,9.57,0.33,-0.25,0,0,0,-0.29,14.16,0,0,0,0,0,0,1,0,0
67326552,0,17640,1,8.17,0.01,-0.003,-0.023,9.57,0.37,-0.28,0,0,0,-0.32,14.14,0,0,0,0,0,0,1,0,0
67343597,0,17045,1,8.17,0.01,-0.003,-0.023,9.56,0.33,-0.27,0,0,0,-0.33,14.14,0,0,0,0,0,0,1,0,0
67361019,0,17422,1,8.17,0.01,-0.003,-0.023,9.56,0.34,-0.26,0,0,0,-0.34,14.14,0,0,0,0,0,0,1,0,0
67378121,0,17102,1,8.17,0.01,-0.003,-0.023,9.57,0.33,-0.26,0,0,0,-0.34,14.14,0,0,0,0,0,0,1,0,0
67396001,0,17880,1,8.18,0.01,-0.003,-0.023,9.54,0.33,-0.27,0,0,0,-0.32,14.14,0,0,0,0,0,0,1,0,0
67415808,0,19807,1,8.18,0.01,-0.003,-0.023,9.56,0.34,-0.28,0,0,0,-0.33,14.14,0,0,0,0,0,0,1,0,0
67432853,0,17045,1,8.15,0.01,-0.003,-0.023,9.58,0.34,-0.28,0,0,0,-0.31,14.15,0,0,0,0,0,0,1,0,0
67450817,0,17964,1,8.16,0.01,-0.003,-0.023,9.56,0.32,-0.26,0,0,0,-0.32,14.16,0,0,0,0,0,0,1,0,0
67469397,0,18580,1,8.18,0.01,-0.003,-0.023,9.59,0.33,-0.26,0,0,0,-0.33,14.13,0,0,0,0,0,0,1,0,0
67486227,0,16830,1,8.17,0.01,-0.003,-0.023,9.57,0.35,-0.29,0,0,0,-0.34,14.13,0,0,0,0,0,0,1,0,0
67505194,0,18967,1,8.17,0.01,-0.003,-0.023,9.56,0.33,-0.24,0,0,0,-0.35,14.15,0,0,0,0,0,0,1,0,0
67522240,0,17046,1,8.16,0.01,-0.003,-0.023,9.58,0.34,-0.29,0,0,0,-0.36,14.13,0,0,0,0,0,0,1,0,0
67539661,0,17421,1,8.16,0.01,-0.003,-0.023,9.56,0.33,-0.26,0,0,0,-0.36,14.13,0,0,0,0,0,0,1,0,0
67556459,0,16798,1,8.18,0.01,-0.003,-0.023,9.57,0.33,-0.28,0,0,0,-0.34,14.14,0,0,0,0,0,0,1,0,0
67573863,0,17404,1,8.17,0.01,-0.003,-0.023,9.58,0.31,-0.28,0,0,0,-0.35,14.14,0,0,0,0,0,0,1,0,0
67592989,0,19126,1,8.16,0.01,-0.003,-0.023,9.57,0.33,-0.26,0.01,0,0,-0.33,14.16,0,0,0,0,0,0,1,0,0
67609979,0,16990,1,8.16,0.01,-0.003,-0.023,9.56,0.34,-0.25,0,0,0,-0.32,14.14,0,0,0,0,0,0,1,0,0
67627595,0,17616,1,8.16,0.01,-0.003,-0.023,9.6,0.35,-0.27,0,0,0,-0.33,14.15,0,0,0,0,0,0,1,0,0
67644697,0,17102,1,8.18,0.01,-0.003,-0.023,9.56,0.34,-0.25,0,0,-0.01,-0.34,14.14,0,0,0,0,0,0,1,0,0
67661836,0,17139,1,8.16,0.01,-0.003,-0.023,9.57,0.33,-0.28,0,0,0,-0.3,14.14,0,0,0,0,0,0,1,0,0
67679262,0,17426,1,8.16,0.009,-0.003,-0.023,9.56,0.35,-0.27,0,0,0,-0.3,14.14,0,0,0,0,0,0,1,0,0
67696454,0,17192,1,8.18,0.009,-0.003,-0.023,9.56,0.35,-0.27,0,0,0,-0.25,14.13,0,0,0,0,0,0,1,0,0
67713556,0,17102,1,8.17,0.009,-0.003,-0.023,9.55,0.34,-0.29,-0.01,0,0,-0.26,14.14,0,0,0,0,0,0,1,0,0
67731409,0,17853,1,8.17,0.009,-0.003,-0.023,9.56,0.33,-0.26,0,0,0,-0.22,14.14,0,0,0,0,0,0,1,0,0
67750568,0,19159,1,8.17,0.009,-0.003,-0.023,9.56,0.34,-0.25,0,0,0,-0.24,14.14,0,0,0,0,0,0,1,0,0
67770368,0,19800,1,8.17,0.01,-0.003,-0.023,9.55,0.36,-0.28,0,0,0,-0.26,14.14,0,0,0,0,0,0,1,0,0
67787163,0,16795,1,8.17,0.01,-0.003,-0.023,9.57,0.33,-0.28,0,0,0,-0.27,14.14,0,0,0,0,0,0,1,0,0
67805015,0,17852,1,8.17,0.01,-0.003,-0.023,9.54,0.35,-0.27,0,0,0,-0.3,14.14,0,0,0,0,0,0,1,0,0
67822062,0,17047,1,8.17,0.009,-0.003,-0.023,9.56,0.33,-0.26,0,0,0,-0.3,14.16,0,0,0,0,0,0,1,0,0
67840467,0,18405,1,8.17,0.01,-0.003,-0.023,9.55,0.33,-0.27,0,0,0,-0.32,14.14,0,0,0,0,0,0,1,0,0
67860219,0,19752,1,8.17,0.01,-0.003,-0.023,9.56,0.32,-0.28,0,0,0,-0.32,14.17,0,0,0,0,0,0,1,0,0
67878912,0,18693,1,8.17,0.01,-0.003,-0.023,9.56,0.37,-0.27,0,0,0,-0.32,14.17,0,0,0,0,0,0,1,0,0
67896070,0,17158,1,8.18,0.009,-0.003,-0.023,9.57,0.35,-0.28,0,0,0,-0.33,14.13,0,0,0,0,0,0,1,0,0
67913922,0,17852,1,8.16,0.009,-0.003,-0.023,9.57,0.35,-0.27,0,0,0,-0.34,14.14,0,0,0,0,0,0,1,0,0
67930910,0,16988,1,8.16,0.01,-0.003,-0.023,9.55,0.36,-0.26,0,0,0,-0.33,14.14,0,0,0,0,0,0,1,0,0
67948309,0,17399,1,8.16,0.01,-0.003,-0.023,9.58,0.33,-0.25,0,0,0,-0.33,14.14,0,0,0,0,0,0,1,0,0
67967843,0,19534,1,8.17,0.01,-0.003,-0.023,9.55,0.32,-0.27,0,0,0,-0.33,14.16,0,0,0,0,0,0,1,0,0
67984889,0,17046,1,8.18,0.009,-0.003,-0.023,9.56,0.33,-0.29,0,0,0,-0.33,14.15,0,0,0,0,0,0,1,0,0
68002769,0,17880,1,8.17,0.009,-0.003,-0.023,9.57,0.34,-0.28,0,0,0,-0.35,14.16,0,0,0,0,0,0,1,0,0
68019878,0,17109,1,8.17,0.009,-0.003,-0.023,9.56,0.35,-0.28,0,0,0,-0.35,14.16,0,0,0,0,0,0,1,0,0
68037326,0,17448,1,8.17,0.009,-0.003,-0.023,9.56,0.33,-0.23,0,0,0,-0.33,14.14,0,0,0,0,0,0,1,0,0
68054372,0,17046,1,8.17,0.009,-0.003,-0.023,9.59,0.32,-0.24,0,0,0,-0.32,14.16,0,0,0,0,0,0,1,0,0
68071496,0,17124,1,8.16,0.009,-0.003,-0.023,9.55,0.34,-0.28,0,0,-0.01,-0.32,14.16,0,0,0,0,0,0,1,0,0
68088926,0,17430,1,8.16,0.009,-0.003,-0.023,9.56,0.33,-0.28,0,0,0,-0.34,14.16,0,0,0,0,0,0,1,0,0
68107688,0,18762,1,8.16,0.009,-0.003,-0.023,9.55,0.33,-0.29,-0.01,0,0,-0.33,14.16,0,0,0,0,0,0,1,0,0
68125920,0,18232,1,8.18,0.009,-0.003,-0.023,9.58,0.35,-0.27,0,0,0,-0.33,14.13,0,0,0,0,0,0,1,0,0
68142965,0,17045,1,8.17,0.009,-0.003,-0.023,9.57,0.36,-0.25,0,0,0,-0.32,14.15,0,0,0,0,0,0,1,0,0
68160776,0,17811,1,8.15,0.009,-0.003,-0.023,9.57,0.34,-0.27,0,0,0,-0.31,14.14,0,0,0,0,0,0,1,0,0
68177822,0,17046,1,8.15,0.009,-0.003,-0.023,9.55,0.34,-0.27,0,0,0,-0.31,14.14,0,0,0,0,0,0,1,0,0
68195148,0,17326,1,8.17,0.009,-0.003,-0.023,9.56,0.32,-0.27,0,0,0,-0.32,14.16,0,0,0,0,0,0,1,0,0
68214897,0,19749,1,8.18,0.009,-0.003,-0.023,9.57,0.32,-0.29,0,0,0,-0.3,14.16,0,0,0,0,0,0,1,0,0
68231706,0,16809,1,8.17,0.009,-0.003,-0.023,9.57,0.33,-0.26,0,0,-0.01,-0.3,14.14,0,0,0,0,0,0,1,0,0
68249558,0,17852,1,8.18,0.009,-0.003,-0.024,9.57,0.34,-0.26,0,0,-0.01,-0.3,14.14,0,0,0,0,0,0,1,0,0
68266660,0,17102,1,8.17,0.009,-0.003,-0.024,9.56,0.37,-0.27,0,0,0,-0.32,14.14,0,0,0,0,0,0,1,0,0
68284778,0,18118,1,8.17,0.009,-0.003,-0.024,9.54,0.37,-0.27,0,0,0,-0.34,14.14,0,0,0,0,0,0,1,0,0
68302210,0,17432,1,8.16,0.009,-0.003,-0.024,9.55,0.33,-0.28,0,0,0,-0.32,14.14,0,0,0,0,0,0,1,0,0
68319325,0,17115,1,8.16,0.009,-0.003,-0.024,9.58,0.34,-0.31,0,0,0,-0.32,14.14,0,0,0,0,0,0,1,0,0
68338017,0,18692,1,8.17,0.009,-0.003,-0.024,9.57,0.31,-0.28,0,0,0,-0.32,14.16,0,0,0,0,0,0,1,0,0
68355063,0,17046,1,8.15,0.009,-0.003,-0.024,9.56,0.31,-0.24,0,0,0,-0.32,14.14,0,0,0,0,0,0,1,0,0
68373110,0,18047,1,8.17,0.009,-0.003,-0.024,9.55,0.34,-0.26,0,0,0,-0.32,14.16,0,0,0,0,0,0,1,0,0
68392139,0,19029,1,8.18,0.009,-0.003,-0.024,9.57,0.34,-0.25,0,0,0,-0.3,14.16,0,0,0,0,0,0,1,0,0
68409129,0,16990,1,8.16,0.009,-0.003,-0.024,9.55,0.36,-0.25,0,0,0,-0.3,14.15,0,0,0,0,0,0,1,0,0
68427093,0,17964,1,8.17,0.009,-0.003,-0.024,9.57,0.33,-0.31,0,0,0,-0.28,14.14,0,0,0,0,0,0,1,0,0
68444195,0,17102,1,8.17,0.009,-0.003,-0.024,9.57,0.32,-0.27,0,0,0,-0.29,14.14,0,0,0,0,0,0,1,0,0
68462067,0,17872,1,8.17,0.009,-0.003,-0.024,9.56,0.31,-0.28,0,0,0,-0.31,14.15,0,0,0,0,0,0,1,0,0
68481082,0,19015,1,8.16,0.009,-0.003,-0.024,9.56,0.32,-0.24,0,0,0,-0.31,14.15,0,0,0,0,0,0,1,0,0
68498184,0,17102,1,8.16,0.009,-0.003,-0.024,9.56,0.34,-0.26,0,0,0,-0.31,14.15,0,0,0,0,0,0,1,0,0
68516091,0,17907,1,8.17,0.009,-0.003,-0.024,9.57,0.37,-0.29,0,0,0,-0.34,14.18,0,0,0,0,0,0,1,0,0
68533286,0,17195,1,8.17,0.009,-0.003,-0.024,9.57,0.35,-0.29,0,0,0,-0.35,14.14,0,0,0,0,0,0,1,0,0
68550474,0,17188,1,8.16,0.009,-0.003,-0.024,9.57,0.35,-0.28,0,0,0,-0.38,14.16,0,0,0,0,0,0,1,0,0
68567898,0,17424,1,8.18,0.01,-0.003,-0.024,9.56,0.33,-0.26,0,0,0,-0.41,14.16,0,0,0,0,0,0,1,0,0
68584909,0,17011,1,8.17,0.009,-0.003,-0.024,9.57,0.32,-0.27,0,0,0,-0.44,14.16,0,0,0,0,0,0,1,0,0
68602739,0,17830,1,8.17,0.01,-0.003,-0.023,9.57,0.33,-0.25,0,0,0,-0.41,14.14,0,0,0,0,0,0,1,0,0
68619905,0,17166,1,8.17,0.009,-0.003,-0.024,9.56,0.32,-0.28,0,0,0,-0.41,14.14,0,0,0,0,0,0,1,0,0
68637198,0,17293,1,8.17,0.009,-0.003,-0.024,9.52,0.34,-0.28,0,0,0,-0.41,14.16,0,0,0,0,0,0,1,0,0
68654594,0,17396,1,8.18,0.009,-0.003,-0.024,9.56,0.36,-0.27,0,0,0,-0.41,14.16,0,0,0,0,0,0,1,0,0
68671697,0,17103,1,8.18,0.009,-0.003,-0.024,9.56,0.35,-0.25,0.01,0,0,-0.41,14.14,0,0,0,0,0,0,1,0,0
68689364,0,17667,1,8.17,0.009,-0.003,-0.024,9.55,0.34,-0.26,0,0,0,-0.41,14.16,0,0,0,0,0,0,1,0,0
68708000,0,18636,1,8.17,0.009,-0.003,-0.024,9.55,0.31,-0.27,0,0,0,-0.39,14.15,0,0,0,0,0,0,1,0,0
68725378,0,17378,1,8.17,0.009,-0.003,-0.024,9.57,0.34,-0.29,0,0,0,-0.4,14.16,0,0,0,0,0,0,1,0,0
68744346,0,18968,1,8.17,0.009,-0.003,-0.024,9.54,0.33,-0.28,0,0,0,-0.41,14.16,0,0,0,0,0,0,1,0,0
68762317,0,17971,1,8.18,0.009,-0.003,-0.024,9.58,0.34,-0.3,0,0,0,-0.4,14.14,0,0,0,0,0,0,1,0,0
68780148,0,17831,1,8.17,0.009,-0.003,-0.024,9.56,0.35,-0.24,0,0,0,-0.4,14.15,0,0,0,0,0,0,1,0,0
68797215,0,17067,1,8.17,0.009,-0.003,-0.024,9.55,0.36,-0.26,0,0,0,-0.4,14.15,0,0,0,0,0,0,1,0,0
68814558,0,17343,1,8.16,0.009,-0.003,-0.024,9.55,0.34,-0.25,0,0,0,-0.4,14.17,0,0,0,0,0,0,1,0,0
68831827,0,17269,1,8.17,0.009,-0.003,-0.024,9.56,0.34,-0.29,0,0,0,-0.41,14.16,0,0,0,0,0,0,1,0,0
68848871,0,17044,1,8.16,0.009,-0.003,-0.024,9.58,0.33,-0.29,0,0,0,-0.38,14.15,0,0,0,0,0,0,1,0,0
68866836,0,17965,1,8.17,0.009,-0.003,-0.024,9.57,0.31,-0.26,0,0,0,-0.36,14.15,0,0,0,0,0,0,1,0,0
68883937,0,17101,1,8.18,0.009,-0.003,-0.024,9.57,0.34,-0.27,0,0,0,-0.36,14.15,0,0,0,0,0,0,1,0,0
68901601,0,17664,1,8.17,0.009,-0.003,-0.024,9.57,0.33,-0.23,0,0,0,-0.36,14.16,0,0,0,0,0,0,1,0,0
68920194,0,18593,1,8.18,0.009,-0.003,-0.024,9.57,0.36,-0.22,0,0,0,-0.34,14.16,0,0,0,0,0,0,1,0,0
68937295,0,17101,1,8.18,0.009,-0.003,-0.024,9.57,0.34,-0.29,0,0,0,-0.34,14.16,0,0,0,0,0,0,1,0,0
68955092,0,17797,1,8.16,0.009,-0.003,-0.024,9.55,0.36,-0.29,0,0,0,-0.36,14.16,0,0,0,0,0,0,1,0,0
68972194,0,17102,1,8.17,0.009,-0.003,-0.024,9.59,0.31,-0.28,0,0,0,-0.35,14.16,0,0,0,0,0,0,1,0,0
68989372,0,17178,1,8.17,0.009,-0.003,-0.024,9.55,0.31,-0.27,0,0,0,-0.35,14.13,0,0,0,0,0,0,1,0,0
69009171,0,19799,1,8.17,0.009,-0.003,-0.024,9.57,0.33,-0.25,0,0,0,-0.35,14.16,0,0,0,0,0,0,1,0,0
69026217,0,17046,1,8.16,0.01,-0.003,-0.024,9.57,0.34,-0.24,0,0,0,-0.34,14.16,0,0,0,0,0,0,1,0,0
69044910,0,18693,1,8.18,0.01,-0.003,-0.024,9.56,0.35,-0.26,0,0,0,-0.31,14.16,0,0,0,0,0,0,1,0,0
69062172,0,17262,1,8.16,0.01,-0.003,-0.024,9.58,0.37,-0.3,0,0,0,-0.29,14.16,0,0,0,0,0,0,1,0,0
69078975,0,16803,1,8.16,0.01,-0.003,-0.024,9.58,0.36,-0.3,0,0,0,-0.29,14.16,0,0,0,0,0,0,1,0,0
69097941,0,18966,1,8.17,0.01,-0.003,-0.024,9.56,0.32,-0.28,0,0,0,-0.28,14.15,0,0,0,0,0,0,1,0,0
69114987,0,17046,1,8.16,0.01,-0.003,-0.024,9.56,0.31,-0.27,0,0,0,-0.28,14.17,0,0,0,0,0,0,1,0,0
69133792,0,18805,1,8.17,0.01,-0.003,-0.024,9.58,0.3,-0.24,0,0,0,-0.28,14.14,0,0,0,0,0,0,1,0,0
69152061,0,18269,1,8.17,0.01,-0.003,-0.024,9.55,0.33,-0.24,0,0,0,-0.29,14.14,0,0,0,0,0,0,1,0,0
69169310,0,17249,1,8.18,0.01,-0.003,-0.024,9.55,0.34,-0.3,0,0,0,-0.29,14.16,0,0,0,0,0,0,1,0,0
69186652,0,17342,1,8.17,0.01,-0.003,-0.024,9.58,0.35,-0.28,0,0,0,-0.3,14.17,0,0,0,0,0,0,1,0,0
69203754,0,17102,1,8.17,0.01,-0.003,-0.024,9.56,0.36,-0.26,0,0,0,-0.31,14.15,0,0,0,0,0,0,1,0,0
69221791,0,18037,1,8.16,0.01,-0.003,-0.024,9.56,0.34,-0.25,0,0,0,-0.34,14.17,0,0,0,0,0,0,1,0,0
69241212,0,19421,1,8.18,0.01,-0.003,-0.024,9.56,0.32,-0.25,0,0,0,-0.34,14.16,0,0,0,0,0,0,1,0,0
69258611,0,17399,1,8.18,0.01,-0.003,-0.024,9.57,0.32,-0.25,0,0,0,-0.34,14.16,0,0,0,0,0,0,1,0,0
69276121,0,17510,1,8.16,0.01,-0.003,-0.024,9.56,0.34,-0.28,0,0,0,-0.34,14.16,0,0,0,0,0,0,1,0,0
69293085,0,16964,1,8.17,0.01,-0.003,-0.024,9.57,0.33,-0.29,0,0,0,-0.35,14.14,0,0,0,0,0,0,1,0,0
69311105,0,18020,1,8.17,0.01,-0.003,-0.024,9.56,0.36,-0.25,-0.01,0,0,-0.38,14.17,0,0,0,0,0,0,1,0,0
69329742,0,18637,1,8.17,0.01,-0.003,-0.024,9.59,0.36,-0.25,0,0,0,-0.39,14.14,0,0,0,0,0,0,1,0,0
69347163,0,17421,1,8.18,0.01,-0.003,-0.024,9.56,0.33,-0.25,0,0,0,-0.4,14.16,0,0,0,0,0,0,1,0,0
69365757,0,18594,1,8.15,0.01,-0.003,-0.024,9.55,0.35,-0.28,0,0.01,0,-0.4,14.18,0,0,0,0,0,0,1,0,0
69384448,0,18691,1,8.17,0.01,-0.003,-0.024,9.57,0.31,-0.29,0,0,0,-0.4,14.16,0,0,0,0,0,0,1,0,0
69403119,0,18671,1,8.17,0.01,-0.003,-0.024,9.56,0.35,-0.29,0,0,0,-0.39,14.16,0,0,0,0,0,0,1,0,0
69419811,0,16692,1,8.17,0.01,-0.003,-0.024,9.56,0.32,-0.28,0,0,0,-0.39,14.16,0,0,0,0,0,0,1,0,0
69438542,0,18731,1,8.17,0.01,-0.003,-0.024,9.56,0.34,-0.25,0,0,0,-0.39,14.16,0,0,0,0,0,0,1,0,0
69455467,0,16925,1,8.17,0.01,-0.003,-0.024,9.57,0.37,-0.25,0,0,0,-0.38,14.15,0,0,0,0,0,0,1,0,0
69473488,0,18021,1,8.16,0.01,-0.003,-0.024,9.57,0.35,-0.29,0,0,0,-0.35,14.15,0,0,0,0,0,0,1,0,0
69490478,0,16990,1,8.17,0.01,-0.003,-0.024,9.58,0.31,-0.28,0,0,0,-0.32,14.17,0,0,0,0,0,0,1,0,0
69508443,0,17965,1,8.16,0.01,-0.003,-0.024,9.56,0.32,-0.28,0,0,0,-0.34,14.17,0,0,0,0,0,0,1,0,0
69525396,0,16953,1,8.18,0.01,-0.003,-0.024,9.58,0.32,-0.28,0,0,0,-0.33,14.17,0,0,0,0,0,0,1,0,0
69544529,0,19133,1,8.17,0.01,-0.003,-0.024,9.56,0.35,-0.26,0,0,0,-0.34,14.15,0,0,0,0,0,0,1,0,0
69562006,0,17477,1,8.18,0.01,-0.003,-0.024,9.58,0.33,-0.25,0,0,0,-0.34,14.16,0,0,0,0,0,0,1,0,0
69579052,0,17046,1,8.18,0.01,-0.003,-0.024,9.58,0.36,-0.29,0,0,0,-0.34,14.16,0,0,0,0,0,0,1,0,0
69596723,0,17671,1,8.16,0.01,-0.003,-0.024,9.57,0.33,-0.28,0,0,0,-0.35,14.16,0,0,0,0,0,0,1,0,0
69613984,0,17261,1,8.17,0.01,-0.003,-0.024,9.56,0.34,-0.29,0,0,0,-0.35,14.15,0,0,0,0,0,0,1,0,0
69631326,0,17342,1,8.16,0.01,-0.003,-0.024,9.56,0.32,-0.3,0,0,0,-0.33,14.16,0,0,0,0,0,0,1,0,0
69650803,0,19477,1,8.17,0.01,-0.003,-0.024,9.55,0.31,-0.25,0,0,0,-0.31,14.16,0,0,0,0,0,0,1,0,0
69667794,0,16991,1,8.17,0.01,-0.003,-0.024,9.57,0.34,-0.25,0,0,0,-0.32,14.17,0,0,0,0,0,0,1,0,0
69685236,0,17442,1,8.17,0.01,-0.003,-0.024,9.55,0.33,-0.26,0,0,0,-0.3,14.16,0,0,0,0,0,0,1,0,0
69702471,0,17235,1,8.17,0.01,-0.003,-0.024,9.55,0.35,-0.29,0,0,0,-0.28,14.17,0,0,0,0,0,0,1,0,0
69720278,0,17807,1,8.16,0.01,-0.003,-0.024,9.56,0.35,-0.29,0,0,0,-0.26,14.16,0,0,0,0,0,0,1,0,0
69737380,0,17102,1,8.16,0.01,-0.003,-0.024,9.57,0.33,-0.28,0,0,0,-0.26,14.16,0,0,0,0,0,0,1,0,0
69754152,0,16772,1,8.18,0.01,-0.003,-0.024,9.55,0.32,-0.27,0,0,0,-0.26,14.16,0,0,0,0,0,0,1,0,0
69771310,0,17158,1,8.16,0.01,-0.003,-0.024,9.59,0.33,-0.26,0,0,0,-0.26,14.17,0,0,0,0,0,0,1,0,0
69789266,0,17956,1,8.17,0.01,-0.003,-0.024,9.57,0.33,-0.25,0,0,0,-0.26,14.16,0,0,0,0,0,0,1,0,0
69806690,0,17424,1,8.16,0.01,-0.003,-0.024,9.55,0.34,-0.28,0,0,0,-0.27,14.17,0,0,0,0,0,0,1,0,0
69825768,0,19078,1,8.17,0.01,-0.003,-0.024,9.57,0.34,-0.29,0,0,0,-0.27,14.16,0,0,0,0,0,0,1,0,0
69843189,0,17421,1,8.17,0.01,-0.003,-0.024,9.56,0.34,-0.26,0,0,0,-0.3,14.17,0,0,0,0,0,0,1,0,0
69860235,0,17046,1,8.17,0.01,-0.003,-0.024,9.59,0.34,-0.26,0,0,0,-0.28,14.16,0,0,0,0,0,0,1,0,0
69878182,0,17947,1,8.17,0.01,-0.003,-0.024,9.56,0.33,-0.25,0,0,0,-0.28,14.16,0,0,0,0,0,0,1,0,0
69895106,0,16924,1,8.18,0.01,-0.003,-0.024,9.56,0.32,-0.25,0,0,0,-0.29,14.15,0,0,0,0,0,0,1,0,0
69913127,0,18021,1,8.16,0.01,-0.003,-0.024,9.57,0.32,-0.25,0,0,0,-0.29,14.16,0,0,0,0,0,0,1,0,0
69930173,0,17046,1,8.17,0.01,-0.003,-0.024,9.59,0.37,-0.28,0,0,0,-0.28,14.16,0,0,0,0,0,0,1,0,0
69948137,0,17964,1,8.16,0.01,-0.003,-0.024,9.56,0.36,-0.26,0,0,0,-0.28,14.17,0,0,0,0,0,0,1,0,0
69966878,0,18741,1,8.17,0.01,-0.003,-0.024,9.57,0.36,-0.27,0,0,0,-0.29,14.17,0,0,0,0,0,0,1,0,0
69983952,0,17074,1,8.17,0.01,-0.003,-0.024,9.56,0.37,-0.25,0,0,0,-0.3,14.17,0,0,0,0,0,0,1,0,0
70001373,0,17421,1,8.15,0.01,-0.003,-0.024,9.56,0.33,-0.26,0,0,0,-0.29,14.16,0,0,0,0,0,0,1,0,0
70018475,0,17102,1,8.15,0.01,-0.003,-0.024,9.56,0.32,-0.28,0,0,0,-0.29,14.16,0,0,0,0,0,0,1,0,0
70035543,0,17068,1,8.17,0.01,-0.003,-0.024,9.56,0.34,-0.27,0,0,0,-0.29,14.16,0,0,0,0,0,0,1,0,0
70052634,0,17091,1,8.16,0.01,-0.003,-0.024,9.58,0.34,-0.28,-0.01,0,0,-0.31,14.18,0,0,0,0,0,0,1,0,0
70070032,0,17398,1,8.17,0.01,-0.003,-0.024,9.56,0.34,-0.28,0,0,0,-0.29,14.17,0,0,0,0,0,0,1,0,0
70087078,0,17046,1,8.16,0.01,-0.003,-0.024,9.56,0.35,-0.27,-0.01,0,0,-0.3,14.17,0,0,0,0,0,0,1,0,0
70105771,0,18693,1,8.17,0.01,-0.003,-0.024,9.56,0.33,-0.27,0,0,0,-0.3,14.17,0,0,0,0,0,0,1,0,0
70123377,0,17606,1,8.18,0.01,-0.003,-0.024,9.55,0.33,-0.27,0,0,0,-0.28,14.17,0,0,0,0,0,0,1,0,0
70140368,0,16991,1,8.16,0.01,-0.003,-0.024,9.54,0.32,-0.28,0,0,0,-0.29,14.17,0,0,0,0,0,0,1,0,0
70160176,0,19808,1,8.17,0.01,-0.003,-0.024,9.56,0.35,-0.27,0,0,0,-0.3,14.18,0,0,0,0,0,0,1,0,0
70178868,0,18692,1,8.17,0.01,-0.003,-0.024,9.57,0.35,-0.29,0,0,0,-0.3,14.18,0,0,0,0,0,0,1,0,0
70196027,0,17159,1,8.17,0.01,-0.003,-0.024,9.56,0.33,-0.24,0,0,0,-0.32,14.17,0,0,0,0,0,0,1,0,0
70213742,0,17715,1,8.17,0.01,-0.003,-0.024,9.56,0.34,-0.27,0,0,0,-0.33,14.19,0,0,0,0,0,0,1,0,0
70230990,0,17248,1,8.16,0.01,-0.003,-0.024,9.55,0.34,-0.25,0,0,0,-0.31,14.17,0,0,0,0,0,0,1,0,0
70248436,0,17446,1,8.17,0.01,-0.003,-0.024,9.54,0.32,-0.27,0,0,0,-0.31,14.18,0,0,0,0,0,0,1,0,0
70265482,0,17046,1,8.17,0.01,-0.003,-0.024,9.57,0.35,-0.28,0,0,0,-0.35,14.18,0,0,0,0,0,0,1,0,0
70282549,0,17067,1,8.16,0.01,-0.003,-0.024,9.55,0.32,-0.31,0,0,0,-0.34,14.17,0,0,0,0,0,0,1,0,0
70299650,0,17101,1,8.16,0.01,-0.003,-0.024,9.57,0.34,-0.27,0,0,0,-0.34,14.17,0,0,0,0,0,0,1,0,0
70317589,0,17939,1,8.16,0.01,-0.003,-0.024,9.56,0.37,-0.26,0,0,0,-0.35,14.17,0,0,0,0,0,0,1,0,0
70337444,0,19855,1,8.17,0.01,-0.003,-0.024,9.56,0.35,-0.25,0,0,0,-0.36,14.17,0,0,0,0,0,0,1,0,0
70356483,0,19039,1,8.17,0.01,-0.003,-0.024,9.55,0.34,-0.27,0,0,0,-0.34,14.16,0,0,0,0,0,0,1,0,0
70373529,0,17046,1,8.17,0.01,-0.003,-0.024,9.55,0.34,-0.26,0,0,0,-0.32,14.17,0,0,0,0,0,0,1,0,0
70391380,0,17851,1,8.17,0.01,-0.003,-0.024,9.56,0.32,-0.28,0,0,0,-0.33,14.17,0,0,0,0,0,0,1,0,0
70408612,0,17232,1,8.17,0.01,-0.003,-0.024,9.56,0.32,-0.27,0,0,0,-0.37,14.18,0,0,0,0,0,0,1,0,0
70425651,0,17039,1,8.17,0.01,-0.003,-0.024,9.57,0.34,-0.28,0,0,0,-0.38,14.17,0,0,0,0,0,0,1,0,0
70442698,0,17047,1,8.16,0.01,-0.003,-0.024,9.56,0.37,-0.26,0,0,0,-0.38,14.17,0,0,0,0,0,0,1,0,0
70460118,0,17420,1,8.18,0.01,-0.003,-0.024,9.55,0.36,-0.29,0,0,0,-0.39,14.17,0,0,0,0,0,0,1,0,0
70477220,0,17102,1,8.18,0.01,-0.003,-0.024,9.59,0.32,-0.25,0,0,0,-0.39,14.17,0,0,0,0,0,0,1,0,0
70494617,0,17397,1,8.17,0.01,-0.003,-0.024,9.55,0.33,-0.27,0,0,0,-0.4,14.17,0,0,0,0,0,0,1,0,0
70511714,0,17097,1,8.17,0.01,-0.003,-0.024,9.57,0.31,-0.25,0,0,0,-0.41,14.17,0,0,0,0,0,0,1,0,0
70529622,0,17908,1,8.17,0.01,-0.003,-0.025,9.55,0.32,-0.26,0,0,0,-0.39,14.17,0,0,0,0,0,0,1,0,0
70546668,0,17046,1,8.15,0.01,-0.003,-0.025,9.58,0.34,-0.28,0,0,0,-0.4,14.19,0,0,0,0,0,0,1,0,0
70564519,0,17851,1,8.17,0.01,-0.003,-0.025,9.55,0.32,-0.27,0,0,0,-0.4,14.17,0,0,0,0,0,0,1,0,0
70582463,0,17944,1,8.17,0.01,-0.003,-0.025,9.55,0.35,-0.28,0,0,0,-0.42,14.17,0,0,0,0,0,0,1,0,0
70599430,0,16967,1,8.17,0.01,-0.003,-0.025,9.57,0.37,-0.27,0,0,0,-0.42,14.17,0,0,0,0,0,0,1,0,0
70618067,0,18637,1,8.17,0.01,-0.003,-0.025,9.55,0.31,-0.27,0,0,0,-0.42,14.18,0,0,0,0,0,0,1,0,0
70635112,0,17045,1,8.16,0.01,-0.003,-0.025,9.57,0.32,-0.28,0,0,0,-0.41,14.17,0,0,0,0,0,0,1,0,0
70652942,0,17830,1,8.17,0.01,-0.003,-0.025,9.55,0.34,-0.28,0,0,0,-0.43,14.18,0,0,0,0,0,0,1,0,0
70670118,0,17176,1,8.17,0.011,-0.003,-0.025,9.56,0.31,-0.26,0,0,0,-0.44,14.18,0,0,0,0,0,0,1,0,0
70687508,0,17390,1,8.16,0.011,-0.003,-0.025,9.56,0.33,-0.28,0,0,0,-0.43,14.19,0,0,0,0,0,0,1,0,0
70707041,0,19533,1,8.17,0.011,-0.003,-0.025,9.55,0.35,-0.28,0,0,0,-0.43,14.18,0,0,0,0,0,0,1,0,0
70724143,0,17102,1,8.18,0.011,-0.003,-0.025,9.56,0.35,-0.28,0,0,0,-0.43,14.17,0,0,0,0,0,0,1,0,0
70742090,0,17947,1,8.17,0.011,-0.003,-0.025,9.56,0.35,-0.27,0,0,0,-0.43,14.18,0,0,0,0,0,0,1,0,0
70759145,0,17055,1,8.17,0.011,-0.003,-0.025,9.58,0.32,-0.26,0,0,0,-0.43,14.18,0,0,0,0,0,0,1,0,0
70776535,0,17390,1,8.18,0.011,-0.003,-0.025,9.56,0.33,-0.28,0,0,0,-0.42,14.18,0,0,0,0,0,0,1,0,0
70793692,0,17157,1,8.17,0.011,-0.003,-0.025,9.55,0.3,-0.26,0,0,0,-0.43,14.18,0,0,0,0,0,0,1,0,0
70810365,0,16673,1,8.16,0.011,-0.003,-0.024,9.55,0.34,-0.25,0,0,0,-0.43,14.18,0,0,0,0,0,0,1,0,0
70827355,0,16990,1,8.17,0.011,-0.003,-0.024,9.59,0.32,-0.28,0,0,0,-0.44,14.19,0,0,0,0,0,0,1,0,0
70845141,0,17786,1,8.16,0.011,-0.003,-0.024,9.56,0.37,-0.26,0,0,0,-0.47,14.17,0,0,0,0,0,0,1,0,0
70862511,0,17370,1,8.18,0.011,-0.003,-0.024,9.56,0.36,-0.27,0,0,0,-0.46,14.18,0,0,0,0,0,0,1,0,0
70879506,0,16995,1,8.18,0.011,-0.003,-0.024,9.57,0.35,-0.29,0,0,0,-0.46,14.18,0,0,0,0,0,0,1,0,0
70896551,0,17045,1,8.18,0.011,-0.003,-0.024,9.57,0.31,-0.25,0,0,0,-0.44,14.18,0,0,0,0,0,0,1,0,0
70914404,0,17853,1,8.17,0.011,-0.003,-0.024,9.57,0.32,-0.26,0,0,0,-0.45,14.18,0,0,0,0,0,0,1,0,0
70931524,0,17120,1,8.17,0.011,-0.003,-0.024,9.56,0.32,-0.27,0,0,0,-0.45,14.18,0,0,0,0,0,0,1,0,0
70949302,0,17778,1,8.18,0.011,-0.003,-0.025,9.58,0.34,-0.27,0,0,0.01,-0.45,14.18,0,0,0,0,0,0,1,0,0
70966349,0,17047,1,8.17,0.011,-0.003,-0.025,9.57,0.34,-0.28,0,0,0,-0.46,14.18,0,0,0,0,0,0,1,0,0
70984257,0,17908,1,8.16,0.011,-0.003,-0.025,9.57,0.37,-0.28,0,0,0,-0.43,14.19,0,0,0,0,0,0,1,0,0
71002143,0,17886,1,8.17,0.011,-0.003,-0.025,9.55,0.34,-0.25,0,0,0,-0.43,14.18,0,0,0,0,0,0,1,0,0
71019125,0,16982,1,8.17,0.011,-0.003,-0.025,9.55,0.32,-0.27,0,0,0,-0.43,14.18,0,0,0,0,0,0,1,0,0
71037766,0,18641,1,8.17,0.011,-0.003,-0.025,9.55,0.33,-0.27,0,0,0,-0.43,14.18,0,0,0,0,0,0,1,0,0
71054868,0,17102,1,8.17,0.011,-0.003,-0.025,9.58,0.31,-0.3,0,0,0,-0.41,14.18,0,0,0,0,0,0,1,0,0
71071880,0,17012,1,8.16,0.011,-0.003,-0.025,9.56,0.34,-0.27,0,0,0,-0.39,14.17,0,0,0,0,0,0,1,0,0
71088926,0,17046,1,8.17,0.011,-0.003,-0.025,9.57,0.35,-0.25,0,0,0,-0.4,14.19,0,0,0,0,0,0,1,0,0
71106901,0,17975,1,8.16,0.011,-0.003,-0.025,9.55,0.38,-0.26,0,0,0,-0.38,14.17,0,0,0,0,0,0,1,0,0
71126699,0,19798,1,8.16,0.011,-0.003,-0.025,9.58,0.36,-0.25,0,0,0,-0.35,14.18,0,0,0,0,0,0,1,0,0
71143746,0,17047,1,8.16,0.011,-0.003,-0.025,9.58,0.31,-0.27,0,0,0,-0.32,14.18,0,0,0,0,0,0,1,0,0
71161167,0,17421,1,8.17,0.011,-0.003,-0.025,9.57,0.32,-0.25,0,0,0,-0.32,14.18,0,0,0,0,0,0,1,0,0
71177977,0,16810,1,8.17,0.011,-0.003,-0.025,9.58,0.33,-0.29,0,0,0,-0.32,14.18,0,0,0,0,0,0,1,0,0
71196706,0,18729,1,8.16,0.011,-0.003,-0.025,9.56,0.36,-0.26,0,0,0,-0.33,14.17,0,0,0,0,0,0,1,0,0
71216505,0,19799,1,8.16,0.011,-0.003,-0.025,9.56,0.37,-0.28,0,0,0,-0.32,14.18,0,0,0,0,0,0,1,0,0
71235085,0,18580,1,8.17,0.011,-0.003,-0.025,9.57,0.34,-0.25,0,0,0,-0.28,14.16,0,0,0,0,0,0,1,0,0
71252187,0,17102,1,8.17,0.011,-0.003,-0.025,9.56,0.37,-0.28,0,0,0,-0.28,14.19,0,0,0,0,0,0,1,0,0
71269783,0,17596,1,8.17,0.011,-0.003,-0.025,9.59,0.33,-0.29,0,0,0,-0.24,14.16,0,0,0,0,0,0,1,0,0
71286933,0,17150,1,8.17,0.011,-0.003,-0.025,9.55,0.32,-0.29,0,0,0,-0.26,14.18,0,0,0,0,0,0,1,0,0
71305165,0,18232,1,8.16,0.011,-0.003,-0.025,9.58,0.31,-0.25,-0.01,0,0,-0.24,14.18,0,0,0,0,0,0,1,0,0
71322210,0,17045,1,8.18,0.011,-0.003,-0.025,9.56,0.31,-0.28,0,0,0,-0.23,14.18,0,0,0,0,0,0,1,0,0
71339437,0,17227,1,8.18,0.011,-0.003,-0.025,9.57,0.33,-0.27,0,0,0,-0.23,14.18,0,0,0,0,0,0,1,0,0
71358913,0,19476,1,8.16,0.011,-0.003,-0.025,9.57,0.36,-0.29,0,0,0,-0.24,14.18,0,0,0,0,0,0,1,0,0
71377937,0,19024,1,8.17,0.011,-0.003,-0.025,9.6,0.36,-0.28,0,0,0,-0.26,14.18,0,0,0,0,0,0,1,0,0
71394640,0,16703,1,8.17,0.011,-0.003,-0.025,9.55,0.34,-0.28,0,0,0,-0.24,14.19,0,0,0,0,0,0,1,0,0
71412315,0,17675,1,8.17,0.011,-0.003,-0.025,9.56,0.33,-0.28,0,0,0,-0.23,14.18,0,0,0,0,0,0,1,0,0
71429417,0,17102,1,8.17,0.011,-0.003,-0.025,9.55,0.32,-0.24,0,0,0,-0.24,14.18,0,0,0,0,0,0,1,0,0
71447269,0,17852,1,8.18,0.011,-0.003,-0.025,9.57,0.31,-0.25,0,0,0,-0.22,14.18,0,0,0,0,0,0,1,0,0
71464487,0,17218,1,8.16,0.011,-0.003,-0.025,9.56,0.33,-0.29,0,0,0,-0.22,14.18,0,0,0,0,0,0,1,0,0
71481782,0,17295,1,8.18,0.011,-0.003,-0.025,9.57,0.34,-0.27,0,0,0,-0.26,14.17,0,0,0,0,0,0,1,0,0
71501203,0,19421,1,8.16,0.011,-0.003,-0.025,9.58,0.36,-0.28,0,0,0,-0.25,14.19,0,0,0,0,0,0,1,0,0
71518305,0,17102,1,8.16,0.011,-0.003,-0.025,9.55,0.37,-0.28,0,0,0,-0.25,14.19,0,0,0,0,0,0,1,0,0
71536157,0,17852,1,8.17,0.011,-0.003,-0.025,9.59,0.35,-0.25,0,0,0,-0.27,14.19,0,0,0,0,0,0,1,0,0
71553190,0,17033,1,8.17,0.011,-0.003,-0.025,9.57,0.33,-0.25,0,0,0,-0.25,14.19,0,0,0,0,0,0,1,0,0
71570823,0,17633,1,8.16,0.011,-0.003,-0.025,9.56,0.31,-0.25,0,0,0,-0.28,14.19,0,0,0,0,0,0,1,0,0
71587981,0,17158,1,8.17,0.011,-0.003,-0.025,9.58,0.34,-0.28,0,0,0,-0.28,14.18,0,0,0,0,0,0,1,0,0
71605049,0,17068,1,8.17,0.011,-0.003,-0.025,9.55,0.36,-0.26,0,0,0,-0.29,14.19,0,0,0,0,0,0,1,0,0
71622151,0,17102,1,8.16,0.011,-0.003,-0.025,9.56,0.34,-0.27,0,0,0,-0.28,14.18,0,0,0,0,0,0,1,0,0
71639993,0,17842,1,8.16,0.011,-0.003,-0.025,9.56,0.37,-0.27,0,0,0,-0.28,14.18,0,0,0,0,0,0,1,0,0
71657418,0,17425,1,8.17,0.011,-0.003,-0.025,9.55,0.37,-0.24,0,0,0.01,-0.29,14.19,0,0,0,0,0,0,1,0,0
71674485,0,17067,1,8.18,0.011,-0.003,-0.025,9.57,0.33,-0.24,0,0,0,-0.28,14.18,0,0,0,0,0,0,1,0,0
71691587,0,17102,1,8.18,0.011,-0.003,-0.025,9.59,0.29,-0.28,0,0,0,-0.26,14.17,0,0,0,0,0,0,1,0,0
71708988,0,17401,1,8.17,0.011,-0.003,-0.025,9.57,0.31,-0.24,0,0,0,-0.27,14.18,0,0,0,0,0,0,1,0,0
71728680,0,19692,1,8.16,0.011,-0.003,-0.025,9.56,0.34,-0.26,-0.01,0,0,-0.26,14.18,0,0,0,0,0,0,1,0,0
71748481,0,19801,1,8.17,0.011,-0.003,-0.025,9.56,0.34,-0.26,0,0,0,-0.23,14.17,0,0,0,0,0,0,1,0,0
71765527,0,17046,1,8.17,0.011,-0.003,-0.025,9.57,0.37,-0.23,0,0,0,-0.23,14.19,0,0,0,0,0,0,1,0,0
71784755,0,19228,1,8.17,0.011,-0.003,-0.025,9.57,0.35,-0.25,0,0,0,-0.24,14.19,0,0,0,0,0,0,1,0,0
71804177,0,19422,1,8.16,0.011,-0.004,-0.025,9.54,0.33,-0.28,0,0,0,-0.24,14.19,0,0,0,0,0,0,1,0,0
71821928,0,17751,1,8.17,0.011,-0.004,-0.025,9.57,0.31,-0.26,0,0,0,-0.27,14.19,0,0,0,0,0,0,1,0,0
71839304,0,17376,1,8.17,0.011,-0.004,-0.025,9.62,0.31,-0.27,0,0,0,-0.27,14.19,0,0,0,0,0,0,1,0,0
71857156,0,17852,1,8.18,0.011,-0.003,-0.025,9.78,0.45,-0.18,-0.02,0.01,0,-0.29,14.19,0,0,0,0,0,0,1,0,0
71873975,0,16819,1,8.15,0.011,-0.003,-0.026,9.64,0.38,-0.22,0,0,0,-0.29,14.18,0,0,0,0,0,0,1,0,0
71891771,0,17796,1,8.16,0.011,-0.003,-0.026,9.63,0.38,-0.28,0,0,0,-0.29,14.18,0,0,0,0,0,0,1,0,0
71909141,0,17370,1,8.17,0.011,-0.003,-0.026,9.61,0.37,-0.32,0,0,0,-0.3,14.18,0,0,0,0,0,0,1,0,0
71926539,0,17398,1,8.16,0.011,-0.003,-0.026,9.57,0.36,-0.25,0,-0.01,0,-0.29,14.19,0,0,0,0,0,0,1,0,0
71945793,0,19254,1,8.17,0.011,-0.004,-0.026,9.55,0.29,-0.25,0,0,0,-0.29,14.18,0,0,0,0,0,0,1,0,0
71962838,0,17045,1,8.17,0.011,-0.003,-0.026,9.56,0.31,-0.27,0,0,0,-0.31,14.19,0,0,0,0,0,0,1,0,0
71980259,0,17421,1,8.16,0.011,-0.004,-0.026,9.56,0.31,-0.29,0,0,0,-0.31,14.2,0,0,0,0,0,0,1,0,0
71997106,0,16847,1,8.16,0.011,-0.004,-0.026,9.58,0.32,-0.28,0,-0.01,0,-0.31,14.2,0,0,0,0,0,0,1,0,0
72015755,0,18649,1,8.17,0.011,-0.004,-0.026,9.57,0.39,-0.22,0,0,0,-0.33,14.18,0,0,0,0,0,0,1,0,0
72034391,0,18636,1,8.18,0.011,-0.004,-0.026,9.59,0.37,-0.39,0,-0.01,0,-0.33,14.2,0,0,0,0,0,0,1,0,0
72051493,0,17102,1,8.18,0.011,-0.004,-0.026,9.64,0.25,-0.16,-0.01,-0.03,0,-0.32,14.2,0,0,0,0,0,0,1,0,0
72069289,0,17796,1,8.17,0.011,-0.004,-0.026,9.57,0.28,-0.25,-0.01,-0.03,0,-0.28,14.2,0,0,0,0,0,0,1,0,0
72086308,0,17019,1,8.16,0.011,-0.004,-0.026,9.62,0.26,-0.16,-0.01,0.02,0,-0.29,14.19,0,0,0,0,0,0,1,0,0
72105629,0,19321,1,8.16,0.011,-0.005,-0.027,9.77,0.25,-0.12,-0.08,-0.11,0.01,-0.3,14.19,0,0,0,0,0,0,1,0,0
72123049,0,17420,1,8.17,0.011,-0.007,-0.029,15.12,0.11,0.28,-0.05,0.04,0,-0.31,14.21,0,0,0,0,0,0,1,0,0
72140094,0,17045,1,8.17,0.011,-0.007,-0.029,19.62,0.17,0.25,-0.02,-0.05,-0.02,-0.33,14.18,0,0,0,0,0,0,1,0,0
72158002,0,17908,1,8.17,0.011,-0.007,-0.03,24.91,0.26,-0.01,-0.15,-0.11,-0.05,-0.33,14.18,0,0,0,0,0,0,1,0,0
72174693,7944,16691,2,8.18,0.01,-0.009,-0.031,29.18,0.2,0.34,0.17,0.01,-0.05,-0.32,14.18,0,0,0,0,0,0,1,0,0
72193041,26292,18348,2,8.17,0.009,-0.01,-0.029,31.97,0.48,0.42,0.01,-0.12,-0.08,-0.3,14.19,0.18,0.47,5,-5,0,0,1,0,0
72210036,43287,16995,2,8.18,0.007,-0.012,-0.029,38.12,0.9,0.78,0.01,-0.12,-0.08,-0.29,14.18,0.99,0.44,0.87,0.49,0,0,1,0,0
72228003,61254,17967,2,8.13,0.004,-0.012,-0.03,41.44,0.93,0.6,-0.06,-0.06,-0.21,-0.27,14.2,0.14,1.02,0.13,0.75,0,0,1,0,0
72244861,78112,16858,2,8.15,0,-0.013,-0.031,46.52,1.5,0.67,0.09,-0.04,-0.31,-0.26,14.19,0.53,1.5,0.46,1.2,0,0,1,0,0
72261886,95137,17025,2,8.18,-0.005,-0.013,-0.03,46.91,1.41,0.59,0,0.03,-0.4,-0.21,14.2,0.42,1.73,0.37,1.74,0,0,1,0,0
72280856,114107,18970,2,8.17,-0.014,-0.013,-0.029,47.02,1.29,0.83,0.04,0.01,-0.52,-0.11,14.19,0.05,2.47,-0.02,2.47,0,0,1,0,0
72298748,131999,17892,2,8.17,-0.024,-0.013,-0.028,35.24,0.87,0.64,0.06,0.08,-0.65,-0.11,14.19,0.18,3.27,0.08,2.99,0,0,1,0,0
72315527,148778,16779,2,8.17,-0.035,-0.012,-0.027,24.08,0.48,0.51,0.06,0.08,-0.65,-0.04,14.2,-0.41,6.81,-0.51,5,0,0,1,0,0
72332633,165884,17106,2,8.17,-0.047,-0.011,-0.025,20.32,0.3,0.41,0.14,0.05,-0.71,0.04,14.19,0.1,10.03,-0.37,5,0,0,1,0,0
72349988,183239,17355,2,8.17,-0.059,-0.011,-0.022,18.01,0.08,0.51,0.14,0.05,-0.71,0.09,14.18,-0.27,11.75,-0.48,5,0,0,1,0,0
72367312,200563,17324,2,8.17,-0.072,-0.01,-0.019,16.87,-0.12,0.45,0.14,0.05,-0.71,0.13,14.19,-0.3,12.33,-0.55,5,0,0,1,0,0
72385724,218975,18412,2,8.17,-0.085,-0.009,-0.018,16.34,-0.23,0.47,0.05,0.07,-0.68,0.15,14.2,-0.43,13.27,-0.57,5,0,0,1,0,0
72405262,238513,19538,2,8.17,-0.097,-0.008,-0.017,15.96,-0.24,0.44,0.04,0.14,-0.63,0.21,14.18,-0.53,13.4,-0.78,5,0,0,1,0,0
72422312,255563,17050,2,8.17,-0.108,-0.006,-0.016,15.02,-0.23,0.38,0,0.07,-0.59,0.27,14.19,-1.6,13.83,-2.14,5,0,0,1,0,0
72440210,273461,17898,2,8.17,-0.118,-0.005,-0.016,14.69,-0.27,0.4,0.02,0.1,-0.55,0.35,14.19,-1.73,13.61,-1.11,5,0,0,1,0,0
72458808,292059,18598,2,8.17,-0.128,-0.003,-0.016,14.44,-0.24,0.34,0.01,0.1,-0.53,0.35,14.19,-1.6,13.63,-1.94,5,0,0,1,0,0
72475914,309165,17106,2,8.17,-0.137,-0.002,-0.016,14.52,-0.19,0.23,0.01,0.11,-0.48,0.39,14.2,-0.93,13.12,-1.82,5,0,0,1,0,0
72493714,326965,17800,2,8.15,-0.145,0,-0.016,14.28,-0.21,0.24,0.01,0.11,-0.48,0.46,14.19,-1.77,13.34,-1.92,5,0,0,1,0,0
72510820,344071,17106,2,8.17,-0.152,0.002,-0.016,13.94,-0.2,0.2,-0.05,0.09,-0.42,0.55,14.2,-1.65,12.68,-1.96,5,0,0,1,0,0
72527666,360917,16846,2,8.16,-0.159,0.003,-0.018,13.84,-0.2,0.19,-0.08,0.04,-0.38,0.62,14.18,-1.13,12.4,-1.94,5,0,0,1,0,0
72547525,380776,19859,2,8.17,-0.166,0.003,-0.02,13.5,-0.2,0.11,-0.1,0.01,-0.35,0.7,14.19,-0.7,12.31,-1.36,5,0,0,1,0,0
72564575,397826,17050,2,8.17,-0.172,0.004,-0.022,13.52,-0.17,0.09,-0.15,0.05,-0.32,0.78,14.19,-0.51,12.24,-0.96,5,0,0,1,0,0
72581999,415250,17424,2,8.16,-0.177,0.004,-0.025,13.55,-0.16,0.07,-0.15,-0.04,-0.3,0.87,14.17,0.25,11.89,-0.79,5,0,0,1,0,0
72599439,432690,17440,2,8.16,-0.183,0.003,-0.028,13.6,-0.13,0.12,-0.2,-0.02,-0.28,0.87,14.17,0.74,11.78,-0.06,5,0,0,1,0,0
72616554,449805,17115,2,8.17,-0.187,0.002,-0.032,13.43,-0.19,0.05,-0.26,0,-0.26,0.94,14.19,0.27,11.4,0.3,5,0,0,1,0,0
72633256,466507,16702,2,8.17,-0.191,0.001,-0.035,13.32,-0.16,0.08,-0.25,-0.06,-0.25,1.02,14.19,1.29,11.41,0.15,5,0,0,1,0,0
72651055,484306,17799,2,8.16,-0.196,0,-0.04,13.49,-0.12,0.17,-0.25,-0.06,-0.25,1.11,14.19,1.3,11.32,0.87,5,0,0,1,0,0
72668155,501406,17100,2,8.16,-0.2,-0.001,-0.044,13.64,-0.14,0.24,-0.32,-0.08,-0.21,1.19,14.18,1.32,11.28,0.83,5,0,0,1,0,0
72686012,519263,17857,2,8.17,-0.203,-0.003,-0.05,13.33,-0.1,0.31,-0.29,-0.14,-0.2,1.26,14.19,2.41,10.69,1.14,5,0,0,1,0,0
72703216,536467,17204,2,8.17,-0.206,-0.004,-0.055,13.25,-0.1,0.34,-0.31,-0.06,-0.17,1.37,14.17,1.54,10.34,1.91,5,0,0,1,0,0
72720186,553437,16970,2,8.16,-0.209,-0.006,-0.06,13.27,-0.08,0.4,-0.31,-0.08,-0.15,1.49,14.16,1.83,10,0.99,5,0,0,1,0,0
72739977,573228,19791,2,8.16,-0.212,-0.008,-0.067,13.32,-0.09,0.42,-0.34,-0.08,-0.13,1.49,14.16,1.88,10,1.22,5,0,0,1,0,0
72757027,590278,17050,2,8.17,-0.213,-0.009,-0.073,13.28,-0.06,0.47,-0.37,-0.06,-0.11,1.62,14.19,1.72,9.32,1.37,5,0,0,1,0,0
72774882,608133,17855,2,8.17,-0.215,-0.01,-0.079,13.15,-0.05,0.49,-0.38,-0.03,-0.09,1.73,14.18,1.5,9.31,1.02,5,0,0,1,0,0
72791644,624895,16762,2,8.16,-0.217,-0.01,-0.086,13.07,-0.02,0.47,-0.42,0.01,-0.06,1.82,14.18,1.1,9.15,0.73,5,0,0,1,0,0
72809616,642867,17972,2,8.17,-0.218,-0.011,-0.093,12.91,-0.03,0.46,-0.41,-0.01,-0.06,1.93,14.18,0.61,8.89,-0.32,5,0,0,1,0,0
72826666,659917,17050,2,8.18,-0.219,-0.01,-0.1,12.95,-0.06,0.46,-0.42,0.09,-0.03,2.03,14.17,-0.86,8.58,-0.24,5,0,0,1,0,0
72844578,677829,17912,2,8.17,-0.219,-0.009,-0.107,12.85,-0.05,0.46,-0.4,0.06,-0.03,2.15,14.16,-0.93,8.33,-2.15,5,0,0,1,0,0
72862469,695720,17891,2,8.17,-0.219,-0.007,-0.115,12.65,-0.03,0.35,-0.46,0.09,0.01,2.28,14.18,-1.23,8.2,-1.88,5,0,0,1,0,0
72880528,713779,18059,2,8.16,-0.219,-0.005,-0.124,12.66,-0.05,0.32,-0.49,0.13,0.04,2.42,14.18,-2.12,7.74,-2.52,5,0,0,1,0,0
72897978,731229,17450,2,8.16,-0.219,-0.003,-0.132,12.81,-0.05,0.15,-0.43,0.12,0.06,2.42,14.18,-2.44,6.98,-3.53,5,0,0,1,0,0
72915028,748279,17050,2,8.17,-0.218,-0.001,-0.14,12.65,-0.04,0.05,-0.51,0.13,0.07,2.51,14.18,-2.65,6.71,-3.36,5,0,0,1,0,0
72932940,766191,17912,2,8.15,-0.217,0.002,-0.15,12.76,-0.05,0.04,-0.56,0.09,0.12,2.61,14.18,-2.85,6.16,-3.73,5,0,0,1,0,0
72952107,785358,19167,2,8.17,-0.214,0.004,-0.161,12.67,0.01,-0.12,-0.57,0.06,0.14,2.73,14.17,-2.32,5.34,-3.18,5,0,0,1,0,0
72969199,802450,17092,2,8.18,-0.212,0.005,-0.171,12.68,0.04,-0.12,-0.57,0.06,0.14,2.83,14.17,-1.87,4.91,-2.67,4.61,0,0,1,0,0
72986593,819844,17394,2,8.16,-0.209,0.006,-0.182,12.61,0.05,-0.17,-0.72,0.01,0.21,2.93,14.17,-1.12,3.66,-2.74,4.47,0,0,1,0,0
73003755,837006,17162,2,8.18,-0.205,0.006,-0.194,12.7,0.04,-0.23,-0.75,-0.07,0.22,3.08,14.18,-0.5,2.94,-1.78,3.38,0,0,1,0,0
73021768,855019,18013,2,8.16,-0.201,0.006,-0.209,12.66,0.08,-0.16,-0.81,-0.05,0.27,3.26,14.17,-0.34,2.01,-0.27,2.6,0,0,1,0,0
73038875,872126,17107,2,8.16,-0.195,0.005,-0.223,12.58,0.09,-0.11,-0.88,-0.2,0.31,3.26,14.17,1.52,0.61,0.3,1.32,0,0,1,0,0
73057102,890353,18227,2,8.13,-0.189,0.002,-0.24,12.64,0.15,-0.03,-0.92,-0.21,0.34,3.4,14.18,2.4,-0.64,2.34,0.36,0,0,1,0,0
73076913,910164,19811,2,8.16,-0.181,0,-0.258,12.64,0.34,0.21,-1,-0.23,0.38,3.54,14.18,2.63,-1.79,2.59,-0.52,0,0,1,0,0
73095371,928622,18458,2,8.19,-0.173,-0.003,-0.277,12.53,0.46,0.34,-1.06,-0.26,0.38,3.72,14.15,3.27,-2.78,3.01,-1.03,0,0,1,0,0
73112422,945673,17051,2,8.15,-0.165,-0.006,-0.296,12.65,0.68,0.61,-1.09,-0.3,0.39,3.88,14.18,3.87,-3.24,3.92,-1.75,0,0,1,0,0
73130334,963585,17912,2,8.17,-0.157,-0.008,-0.316,12.37,0.85,0.88,-1.11,-0.27,0.4,4.07,14.18,3,-3.76,4.71,-2.13,0,0,1,0,0
73149373,982624,19039,2,8.16,-0.148,-0.011,-0.338,11.99,1.05,1.12,-1.16,-0.24,0.38,4.26,14.18,2.87,-3.88,4.17,-2.69,0,0,1,0,0
73166413,999664,17040,2,8.18,-0.141,-0.012,-0.358,11.88,1.18,1.21,-1.16,-0.24,0.38,4.45,14.18,2.48,-3.99,3.78,-2.77,0,0,1,0,0
73185054,1018305,18641,2,8.17,-0.134,-0.012,-0.38,11.7,1.31,1.37,-1.18,-0.13,0.34,4.61,14.19,0.59,-2.75,3.75,-3.02,0,0,1,0,0
73202162,1035413,17108,2,8.17,-0.128,-0.012,-0.4,11.68,1.36,1.46,-1.2,-0.04,0.29,4.77,14.19,-0.8,-1.6,1.34,-2.41,0,0,1,0,0
73220429,1053680,18267,2,8.17,-0.124,-0.009,-0.422,11.41,1.39,1.52,-1.2,0.03,0.23,4.93,14.21,-2.64,0.07,-1.41,-1.41,0,0,1,0,0
73239425,1072676,18996,2,8.17,-0.121,-0.007,-0.445,11.47,1.51,1.51,-1.21,0.15,0.21,4.93,14.21,-2.79,0.68,-2.52,-0.53,0,0,1,0,0
73259229,1092480,19804,2,8.15,-0.119,-0.002,-0.469,11.51,1.54,1.33,-1.21,0.21,0.17,5.08,14.19,-5.27,2.6,-5,-0.2,0,0,1,0,0
73277872,1111123,18643,2,8.15,-0.118,0.004,-0.491,11.61,1.55,1.13,-1.21,0.25,0.17,5.27,14.18,-6.66,4,-5,-0.08,0,0,1,0,0
73294981,1128232,17109,2,8.16,-0.118,0.009,-0.512,11.56,1.48,0.84,-1.25,0.25,0.14,5.46,14.18,-7.01,4.79,-5,0.36,0,0,1,0,0
73312206,1145457,17225,2,8.18,-0.118,0.014,-0.534,11.58,1.44,0.65,-1.25,0.25,0.14,5.67,14.17,-6.96,5.03,-5,0.7,0,0,1,0,0
73330191,1163442,17985,2,8.15,-0.118,0.018,-0.558,11.56,1.29,0.48,-1.39,0.13,0.11,5.86,14.18,-6.12,4.85,-5,0.73,0,0,1,0,0
73346915,1180166,16724,2,8.17,-0.117,0.02,-0.582,11.48,1.2,0.38,-1.46,0.09,0.11,6.05,14.17,-3.92,3.88,-5,1.11,0,0,1,0,0
73363966,1197217,17051,2,8.16,-0.117,0.022,-0.607,11.47,1.21,0.35,-1.48,0.09,0.11,6.24,14.19,-3.83,3.91,-5,1.12,0,0,1,0,0
73381838,1215089,17872,2,8.16,-0.115,0.022,-0.635,11.69,1.12,0.33,-1.61,-0.12,0.09,6.45,14.19,-0.54,1.85,-2.75,1.15,0,0,1,0,0
73398946,1232197,17108,2,8.16,-0.112,0.021,-0.663,11.61,1.22,0.36,-1.67,-0.2,0.09,6.45,14.19,0.47,1.07,-1.54,1.15,0,0,1,0,0
73416819,1250070,17873,2,8.14,-0.108,0.019,-0.693,11.54,1.19,0.34,-1.77,-0.28,0.08,6.64,14.17,1.41,0.03,1,1,0,0,1,0,0
73436682,1269933,19863,2,8.13,-0.102,0.014,-0.729,11.59,1.16,0.59,-1.81,-0.4,0.06,6.86,14.18,4.65,-2.42,3.93,1.21,0,0,1,0,0
73455325,1288576,18643,2,8.18,-0.096,0.009,-0.763,11.68,1.18,0.78,-1.87,-0.47,0.06,7.04,14.18,6.56,-4.13,5,1.43,0,0,1,0,0
73472125,1305376,16800,2,8.16,-0.089,0.004,-0.795,11.56,1.18,1.13,-1.92,-0.51,0.04,7.26,14.17,7.17,-4.85,5,1.42,0,0,1,0,0
73489983,1323234,17858,2,8.14,-0.082,-0.002,-0.83,11.4,1.16,1.47,-1.96,-0.57,0.02,7.46,14.19,7.99,-5.88,5,1.81,0,0,1,0,0
73507412,1340663,17429,2,8.16,-0.074,-0.009,-0.864,11.31,1.11,1.7,-1.98,-0.62,-0.01,7.65,14.18,8.78,-6.46,5,2.05,0,0,1,0,0
73524872,1358123,17460,2,8.18,-0.067,-0.015,-0.898,11.11,1.02,1.98,-1.97,-0.53,-0.02,7.85,14.19,9.05,-6.51,5,2.61,0,0,1,0,0
73542530,1375781,17658,2,8.18,-0.06,-0.022,-0.933,11.16,0.92,2.15,-1.93,-0.53,-0.04,8.05,14.16,9.02,-6.37,5,3.1,0,0,1,0,0
73559958,1393209,17428,2,8.18,-0.054,-0.027,-0.967,11.03,0.85,2.26,-1.93,-0.5,-0.05,8.05,14.16,8.84,-6.35,5,3.55,0,0,1,0,0
73577065,1410316,17107,2,8.17,-0.048,-0.033,-0.999,11.08,0.71,2.33,-1.88,-0.44,-0.08,8.22,14.18,8.82,-5.99,5,3.8,0,0,1,0,0
73594492,1427743,17427,2,8.16,-0.042,-0.038,-1.031,11.02,0.6,2.43,-1.84,-0.41,-0.07,8.43,14.18,8.01,-5.21,5,4.34,0,0,1,0,0
73614033,1447284,19541,2,8.16,-0.037,-0.042,-1.067,11.15,0.56,2.39,-1.79,-0.32,-0.06,8.61,14.19,7.63,-5.23,5,4.23,0,0,1,0,0
73631085,1464336,17052,2,8.16,-0.032,-0.046,-1.098,11.13,0.44,2.34,-1.78,-0.3,-0.06,8.83,14.19,6.4,-3.9,5,3.88,0,0,1,0,0
73649054,1482305,17969,2,8.17,-0.029,-0.049,-1.129,11,0.38,2.37,-1.68,-0.23,-0.05,9.06,14.18,5.46,-3.3,5,3.77,0,0,1,0,0
73667698,1500949,18644,2,8.17,-0.025,-0.051,-1.16,10.88,0.19,2.4,-1.65,-0.23,-0.05,9.25,14.18,5.37,-3.31,5,3.56,0,0,1,0,0
73685030,1518281,17332,2,8.17,-0.022,-0.053,-1.188,10.94,0.11,2.52,-1.57,-0.17,-0.02,9.43,14.19,5.33,-3.43,5,3.66,0,0,1,0,0
73702050,1535301,17020,2,8.17,-0.02,-0.054,-1.214,10.97,0.22,2.66,-1.52,-0.12,0.02,9.59,14.18,3.39,-1.99,3.9,2.95,0,0,1,0,0
73719103,1552354,17053,2,8.17,-0.018,-0.054,-1.24,10.97,0.26,2.54,-1.44,-0.1,0.03,9.59,14.18,2.32,-1.32,2.51,2.04,0,0,1,0,0
73737016,1570267,17913,2,8.17,-0.017,-0.054,-1.265,10.93,0.2,2.52,-1.35,-0.01,0.05,9.79,14.19,1.2,0.59,2.02,1.75,0,0,1,0,0
73754611,1587862,17595,2,8.15,-0.016,-0.053,-1.288,11.12,0.03,2.58,-1.28,0.04,0.07,10,14.18,1.23,0.41,-0.22,1.32,0,0,1,0,0
73771708,1604959,17097,2,8.18,-0.017,-0.052,-1.31,10.93,0.02,2.4,-1.28,0.04,0.07,10.2,14.19,0.33,1.36,-0.71,0.94,0,0,1,0,0
73789028,1622279,17320,2,8.18,-0.017,-0.05,-1.332,10.76,-0.09,2.45,-1.28,0.04,0.07,10.39,14.18,0.29,1.46,-1.3,0.65,0,0,1,0,0
73806156,1639407,17128,2,8.17,-0.019,-0.048,-1.352,10.85,-0.15,2.26,-1.08,0.13,0.1,10.57,14.17,-0.98,3.7,-2.48,0.34,0,0,1,0,0
73823477,1656728,17321,2,8.17,-0.02,-0.046,-1.37,10.86,-0.12,1.98,-1.02,0.12,0.12,10.76,14.18,-1.29,3.8,-3.82,-0.18,0,0,1,0,0
73840961,1674212,17484,2,8.18,-0.023,-0.043,-1.387,10.84,-0.08,1.64,-0.98,0.17,0.12,10.97,14.19,-1.72,4.46,-3.78,-0.72,0,0,1,0,0
73857999,1691250,17038,2,8.18,-0.025,-0.041,-1.404,10.63,-0.06,1.7,-0.95,0.06,0.12,10.97,14.19,-1.77,4.47,-4.97,-0.93,0,0,1,0,0
73876236,1709487,18237,2,8.17,-0.025,-0.039,-1.421,10.73,0.06,1.41,-0.9,0.02,0.12,11.16,14.18,-1.32,2.05,-2.72,-0.98,0,0,1,0,0
73892910,1726161,16674,2,8.17,-0.025,-0.037,-1.435,16.34,0.5,1.11,-0.88,-0.04,0.09,11.36,14.18,-1.05,1.31,-2.22,-1.02,0,0,1,0,0
73909984,1743235,17074,2,8.15,-0.024,-0.036,-1.45,23.55,-1.78,2,-0.88,-0.04,0.09,11.74,14.18,-0.08,0.03,-0.47,-0.41,0,0,1,0,0
73927148,1760399,17164,2,8.16,-0.02,-0.034,-1.465,0.48,-0.73,0.88,-0.87,-0.34,0.09,11.87,14.18,-17,-90,-5,-5,0,0,1,0,0
73944973,1778224,17825,2,8.12,-0.014,-0.033,-1.481,-0.19,-0.23,1.93,-0.87,-0.34,0.09,12.04,14.16,4.39,-90,5,-4.22,0,0,1,0,0
73963140,1796391,18167,2,8.12,-0.007,-0.032,-1.497,0.17,-0.09,1.53,-0.77,-0.42,0.09,12.2,14.19,-6.34,-90,5,-5,0,0,1,0,0
73980568,1813819,17428,2,8.12,0,-0.031,-1.51,-0.4,-0.03,1.76,-0.78,-0.45,0.09,12.34,14.18,-10.73,-90,5,-5,0,0,1,0,0
73998481,1831732,17913,2,8.12,0.009,-0.03,-1.524,-0.5,-0.07,1.59,-0.75,-0.53,0.08,12.34,14.18,1.54,-90,5,-5,0,0,1,0,0
74015245,1848496,16764,3,8.13,0.018,-0.029,-1.537,-0.46,-0.03,1.72,-0.77,-0.57,0.05,12.48,14.19,-0.65,-90,0,0,0,0,1,0,0
74033553,1866804,18308,3,8.17,0.029,-0.029,-1.551,-0.49,-0.09,1.75,-0.74,-0.62,0.05,12.63,14.17,-0.65,-90,0,0,0,0,1,0,0
74050259,1883510,16706,3,8.13,0.04,-0.028,-1.564,-0.43,-0.01,1.76,-0.69,-0.68,0.03,12.78,14.18,-0.65,-90,0,0,0,0,1,0,0
74067329,1900580,17070,3,8.12,0.051,-0.028,-1.576,-0.44,-0.24,1.89,-0.69,-0.68,0.03,12.95,14.17,-0.65,-90,0,0,0,0,1,0,0
74084147,1917398,16818,3,8.16,0.064,-0.027,-1.587,-0.42,-0.2,1.82,-0.65,-0.75,0.01,13.13,14.17,-0.65,-90,0,0,0,0,1,0,0
74103626,1936877,19479,3,8.17,0.079,-0.027,-1.6,-0.38,0.1,1.96,-0.6,-0.83,-0.02,13.26,14.18,-0.65,-90,0,0,0,0,1,0,0
74121615,1954866,17989,3,8.16,0.095,-0.027,-1.611,-0.38,0.51,2.02,-0.58,-0.88,-0.04,13.4,14.18,-0.65,-90,0,0,0,0,1,0,0
74138985,1972236,17370,3,8.16,0.11,-0.027,-1.621,-0.32,0.45,2.1,-0.57,-0.92,-0.06,13.4,14.18,-0.65,-90,0,0,0,0,1,0,0
74156576,1989827,17591,3,8.17,0.127,-0.028,-1.632,-0.35,0.53,2.1,-0.58,-0.98,-0.08,13.55,14.18,-0.65,-90,0,0,0,0,1,0,0
74173569,2006820,16993,3,8.17,0.144,-0.028,-1.642,-0.34,0.66,2.19,-0.58,-0.98,-0.08,13.68,14.18,-0.65,-90,0,0,0,0,1,0,0
74190750,2024001,17181,3,8.17,0.162,-0.028,-1.653,-0.34,0.5,2.22,-0.58,-1.08,-0.1,13.84,14.17,-0.65,-90,0,0,0,0,1,0,0
74207752,2041003,17002,3,8.16,0.18,-0.028,-1.663,-0.37,0.23,2.24,-0.58,-1.08,-0.1,13.99,14.17,-0.65,-90,0,0,0,0,1,0,0
74225486,2058737,17734,3,8.16,0.201,-0.028,-1.674,-0.34,-0.1,2.23,-0.57,-1.14,-0.11,14.12,14.18,-0.65,-90,0,0,0,0,1,0,0
74242534,2075785,17048,3,8.18,0.221,-0.028,-1.684,-0.32,-0.01,2.19,-0.55,-1.22,-0.11,14.29,14.17,-0.65,-90,0,0,0,0,1,0,0
74260798,2094049,18264,3,8.16,0.243,-0.027,-1.694,-0.34,0.23,2.21,-0.54,-1.25,-0.11,14.45,14.17,-0.65,-90,0,0,0,0,1,0,0
74279436,2112687,18638,3,8.16,0.267,-0.026,-1.705,-0.3,-0.18,2.19,-0.53,-1.27,-0.12,14.45,14.17,-0.65,-90,0,0,0,0,1,0,0
74296747,2129998,17311,3,8.17,0.289,-0.025,-1.715,-0.33,-0.42,2.15,-0.53,-1.27,-0.12,14.6,14.19,-0.65,-90,0,0,0,0,1,0,0
74314084,2147335,17337,3,8.16,0.311,-0.024,-1.725,-0.33,-0.18,2.14,-0.53,-1.27,-0.12,14.72,14.18,-0.65,-90,0,0,0,0,1,0,0
74331188,2164439,17104,3,8.17,0.335,-0.023,-1.734,-0.29,-0.43,2.07,-0.51,-1.38,-0.13,14.86,14.18,-0.65,-90,0,0,0,0,1,0,0
74349042,2182293,17854,3,8.17,0.36,-0.021,-1.743,-0.26,-0.57,2.04,-0.5,-1.42,-0.14,14.95,14.17,-0.65,-90,0,0,0,0,1,0,0
74365720,2198971,16678,3,8.17,0.384,-0.019,-1.752,-0.32,-0.73,2.11,-0.48,-1.47,-0.15,15.09,14.19,-0.65,-90,0,0,0,0,1,0,0
74384430,2217681,18710,3,8.18,0.411,-0.017,-1.761,-0.27,-0.76,2.24,-0.48,-1.47,-0.15,15.23,14.17,-0.65,-90,0,0,0,0,1,0,0
74403025,2236276,18595,3,8.17,0.439,-0.014,-1.771,-0.22,-0.47,2.29,-0.44,-1.55,-0.16,15.36,14.19,-0.65,-90,0,0,0,0,1,0,0
74420075,2253326,17050,3,8.17,0.466,-0.012,-1.778,-0.2,-0.68,2.37,-0.44,-1.57,-0.17,15.51,14.17,-0.65,-90,0,0,0,0,1,0,0
74437456,2270707,17381,3,8.17,0.494,-0.009,-1.786,-0.18,-1.26,2.42,-0.42,-1.62,-0.16,15.51,14.17,-0.65,-90,0,0,0,0,1,0,0
74454618,2287869,17162,3,8.17,0.522,-0.005,-1.794,-0.21,-1.16,2.33,-0.41,-1.65,-0.13,15.68,14.18,-0.65,-90,0,0,0,0,1,0,0
74472872,2306123,18254,3,8.19,0.552,0,-1.801,-0.17,-0.49,2.31,-0.41,-1.69,-0.1,15.81,14.17,-0.65,-90,0,0,0,0,1,0,0
74491898,2325149,19026,3,8.18,0.584,0.006,-1.809,-0.19,-0.36,2.36,-0.42,-1.73,-0.07,15.93,14.18,-0.65,-90,0,0,0,0,1,0,0
74508834,2342085,16936,3,8.17,0.613,0.012,-1.816,-0.19,-0.46,2.33,-0.44,-1.79,-0.02,16.05,14.18,-0.65,-90,0,0,0,0,1,0,0
74526690,2359941,17856,3,8.17,0.644,0.02,-1.824,-0.17,-0.52,2.2,-0.44,-1.81,-0.01,16.17,14.17,-0.65,-90,0,0,0,0,1,0,0
74543741,2376992,17051,3,8.18,0.675,0.029,-1.831,-0.17,-0.41,2.19,-0.46,-1.88,0.05,16.29,14.19,-0.65,-90,0,0,0,0,1,0,0
74560961,2394212,17220,3,8.18,0.706,0.038,-1.837,-0.16,-0.26,2.21,-0.47,-1.93,0.07,16.39,14.18,-0.65,-90,0,0,0,0,1,0,0
74578749,2412000,17788,3,8.18,0.739,0.049,-1.844,-0.16,-0.22,2.15,-0.47,-1.99,0.09,16.39,14.18,-0.65,-90,0,0,0,0,1,0,0
74595820,2429071,17071,3,8.18,0.772,0.06,-1.851,-0.11,-0.34,2.03,-0.47,-2.02,0.1,16.49,14.21,-0.65,-90,0,0,0,0,1,0,0
74615244,2448495,19424,3,8.17,0.809,0.073,-1.857,-0.14,-0.24,1.9,-0.48,-2.08,0.12,16.58,14.19,-0.65,-90,0,0,0,0,1,0,0
74632237,2465488,16993,3,8.16,0.843,0.085,-1.863,-0.14,-0.29,1.72,-0.48,-2.11,0.13,16.67,14.18,-0.65,-90,0,0,0,0,1,0,0
74649895,2483146,17658,3,8.17,0.878,0.098,-1.868,-0.13,-0.45,1.53,-0.48,-2.11,0.13,16.75,14.19,-0.65,-90,0,0,0,0,1,0,0
74667267,2500518,17372,3,8.17,0.913,0.111,-1.873,-0.14,-0.45,1.31,-0.48,-2.15,0.11,16.82,14.18,-0.65,-90,0,0,0,0,1,0,0
74685234,2518485,17967,3,8.17,0.949,0.124,-1.877,-0.14,-0.47,1.17,-0.47,-2.15,0.07,16.89,14.18,-0.65,-90,0,0,0,0,1,0,0
74702283,2535534,17049,3,8.17,0.984,0.136,-1.881,-0.14,-0.45,1.05,-0.46,-2.14,0.05,16.96,14.19,-0.65,-90,0,0,0,0,1,0,0
74719394,2552645,17111,3,8.17,1.019,0.148,-1.883,-0.14,-0.39,0.97,-0.45,-2.13,0.01,16.96,14.19,-0.65,-90,0,0,0,0,1,0,0
74736200,2569451,16806,3,8.18,1.054,0.159,-1.886,-0.17,-0.34,0.85,-0.44,-2.12,-0.01,16.99,14.18,-0.65,-90,0,0,0,0,1,0,0
74753594,2586845,17394,3,8.16,1.089,0.17,-1.888,-0.16,-0.26,0.76,-0.44,-2.11,-0.03,17.02,14.18,-0.65,-90,0,0,0,0,1,0,0
74770700,2603951,17106,3,8.18,1.124,0.181,-1.889,-0.13,-0.26,0.68,-0.43,-2.09,-0.04,17.07,14.19,-0.65,-90,0,0,0,0,1,0,0
74787963,2621214,17263,3,8.17,1.159,0.191,-1.89,-0.13,-0.25,0.56,-0.43,-2.09,-0.04,17.1,14.19,-0.65,-90,0,0,0,0,1,0,0
74807499,2640750,19536,3,8.18,1.199,0.202,-1.89,-0.14,-0.2,0.41,-0.42,-2.05,-0.09,17.12,14.18,-0.65,-90,0,0,0,0,1,0,0
74824409,2657660,16910,3,8.17,1.233,0.212,-1.89,-0.14,-0.19,0.33,-0.42,-2.02,-0.11,17.13,14.19,-0.65,-90,0,0,0,0,1,0,0
74842274,2675525,17865,3,8.18,1.268,0.221,-1.89,-0.1,-0.23,0.28,-0.42,-2,-0.11,17.17,14.19,-0.65,-90,0,0,0,0,1,0,0
74859143,2692394,16869,3,8.18,1.302,0.23,-1.89,-0.11,-0.22,0.23,-0.42,-1.99,-0.12,17.17,14.19,-0.65,-90,0,0,0,0,1,0,0
74876997,2710248,17854,3,8.17,1.337,0.239,-1.889,-0.12,-0.22,0.14,-0.42,-1.97,-0.14,17.17,14.19,-0.65,-90,0,0,0,0,1,0,0
74894158,2727409,17161,3,8.18,1.37,0.247,-1.888,-0.13,-0.23,0.05,-0.42,-1.96,-0.14,17.21,14.19,-0.65,-90,0,0,0,0,1,0,0
74911398,2744649,17240,3,8.17,1.404,0.255,-1.887,-0.1,-0.22,-0.02,-0.42,-1.95,-0.15,17.25,14.17,-0.65,-90,0,0,0,0,1,0,0
74928432,2761683,17034,3,8.17,1.438,0.263,-1.885,-0.11,-0.22,-0.08,-0.41,-1.93,-0.17,17.26,14.19,-0.65,-90,0,0,0,0,1,0,0
74946231,2779482,17799,3,8.17,1.472,0.27,-1.884,-0.09,-0.16,-0.1,-0.41,-1.93,-0.17,17.24,14.19,-0.65,-90,0,0,0,0,1,0,0
74963280,2796531,17049,3,8.18,1.506,0.277,-1.882,-0.12,-0.1,-0.13,-0.4,-1.92,-0.19,17.24,14.19,-0.65,-90,0,0,0,0,1,0,0
74980655,2813906,17375,3,8.18,1.54,0.284,-1.879,-0.1,-0.08,-0.15,-0.41,-1.91,-0.21,17.27,14.19,-0.65,-90,0,0,0,0,1,0,0
74997677,2830928,17022,3,8.18,1.573,0.291,-1.877,-0.08,-0.05,-0.18,-0.41,-1.91,-0.21,17.27,14.19,-0.65,-90,0,0,0,0,1,0,0
75015013,2848264,17336,3,8.17,1.608,0.297,-1.874,-0.12,-0.06,-0.25,-0.41,-1.91,-0.21,17.26,14.21,-0.65,-90,0,0,0,0,1,0,0
75032118,2865369,17105,3,8.17,1.641,0.303,-1.871,-0.11,-0.1,-0.33,-0.42,-1.9,-0.24,17.28,14.21,-0.65,-90,0,0,0,0,1,0,0
75049796,2883047,17678,3,8.16,1.676,0.308,-1.868,-0.13,-0.13,-0.33,-0.42,-1.89,-0.26,17.28,14.21,-0.65,-90,0,0,0,0,1,0,0
75066845,2900096,17049,3,8.18,1.71,0.313,-1.865,-0.13,-0.16,-0.36,-0.41,-1.89,-0.28,17.3,14.19,-0.65,-90,0,0,0,0,1,0,0
75084711,2917962,17866,3,8.18,1.746,0.318,-1.861,-0.11,-0.11,-0.43,-0.42,-1.89,-0.3,17.31,14.22,-0.65,-90,0,0,0,0,1,0,0
75102083,2935334,17372,3,8.18,1.781,0.322,-1.857,-0.14,-0.08,-0.51,-0.41,-1.88,-0.32,17.3,14.19,-0.65,-90,0,0,0,0,1,0,0
75119111,2952362,17028,3,8.18,1.815,0.326,-1.853,-0.11,0,-0.57,-0.42,-1.87,-0.35,17.3,14.19,-0.65,-90,0,0,0,0,1,0,0
75136272,2969523,17161,3,8.17,1.849,0.329,-1.849,-0.11,0.05,-0.71,-0.42,-1.87,-0.36,17.29,14.2,-0.65,-90,0,0,0,0,1,0,0
75153287,2986538,17015,3,8.17,1.883,0.331,-1.845,-0.09,0.13,-0.84,-0.42,-1.87,-0.36,17.27,14.18,-0.65,-90,0,0,0,0,1,0,0
75170553,3003804,17266,3,8.17,1.918,0.334,-1.841,-0.12,0.04,-0.99,-0.43,-1.85,-0.4,17.25,14.19,-0.65,-90,0,0,0,0,1,0,0
75187595,3020846,17042,3,8.17,1.952,0.335,-1.838,-0.1,0.03,-1.07,-0.43,-1.85,-0.4,17.25,14.19,-0.65,-90,0,0,0,0,1,0,0
75205486,3038737,17891,3,8.18,1.988,0.337,-1.834,-0.1,-0.05,-1.22,-0.44,-1.83,-0.43,17.23,14.2,-0.65,-90,0,0,0,0,1,0,0
75224126,3057377,18640,3,8.15,2.025,0.338,-1.83,-0.1,-0.04,-1.31,-0.45,-1.82,-0.44,17.19,14.19,-0.65,-90,0,0,0,0,1,0,0
75242336,3075587,18210,3,8.17,2.061,0.338,-1.826,-0.07,0.02,-1.5,-0.45,-1.82,-0.45,17.14,14.21,-0.65,-90,0,0,0,0,1,0,0
75259434,3092685,17098,3,8.17,2.095,0.339,-1.822,-0.13,0.14,-1.54,-0.47,-1.8,-0.47,17.14,14.21,-0.65,-90,0,0,0,0,1,0,0
75276892,3110143,17458,3,8.18,2.129,0.338,-1.82,-0.13,0.23,-1.54,-0.49,-1.78,-0.48,17.1,14.21,-0.65,-90,0,0,0,0,1,0,0
75293942,3127193,17050,3,8.18,2.162,0.338,-1.817,-0.15,0.3,-1.63,-0.52,-1.75,-0.51,17.05,14.2,-0.65,-90,0,0,0,0,1,0,0
75311966,3145217,18024,3,8.17,2.197,0.336,-1.815,-0.17,0.22,-1.7,-0.54,-1.74,-0.53,16.98,14.2,-0.65,-90,0,0,0,0,1,0,0
75328904,3162155,16938,3,8.17,2.229,0.334,-1.814,-0.16,-0.04,-1.89,-0.56,-1.71,-0.54,16.93,14.19,-0.65,-90,0,0,0,0,1,0,0
75346325,3179576,17421,3,8.17,2.262,0.332,-1.813,-0.18,0.09,-1.93,-0.59,-1.68,-0.55,16.83,14.19,-0.65,-90,0,0,0,0,1,0,0
75363033,3196284,16708,3,8.17,2.293,0.33,-1.813,-0.2,0.82,-1.73,-0.6,-1.67,-0.57,16.76,14.19,-0.65,-90,0,0,0,0,1,0,0
75380457,3213708,17424,3,8.16,2.325,0.327,-1.813,-0.19,1.03,-1.69,-0.62,-1.65,-0.58,16.72,14.21,-0.65,-90,0,0,0,0,1,0,0
75397559,3230810,17102,3,8.16,2.356,0.324,-1.815,-0.19,0.34,-1.98,-0.68,-1.61,-0.6,16.72,14.21,-0.65,-90,0,0,0,0,1,0,0
75414574,3247825,17015,3,8.16,2.387,0.321,-1.816,-0.2,0.05,-2.09,-0.68,-1.61,-0.6,16.68,14.2,-0.65,-90,0,0,0,0,1,0,0
75431797,3265048,17223,3,8.17,2.418,0.317,-1.819,-0.23,0.72,-1.92,-0.76,-1.56,-0.62,16.61,14.21,-0.65,-90,0,0,0,0,1,0,0
75449189,3282440,17392,3,8.16,2.448,0.313,-1.823,-0.24,1.22,-1.74,-0.78,-1.55,-0.63,16.55,14.19,-0.65,-90,0,0,0,0,1,0,0
75466613,3299864,17424,3,8.17,2.478,0.309,-1.828,-0.24,0.9,-1.93,-0.82,-1.53,-0.63,16.49,14.21,-0.65,-90,0,0,0,0,1,0,0
75484524,3317775,17911,3,8.18,2.508,0.305,-1.835,-0.25,0.36,-2.13,-0.89,-1.47,-0.66,16.43,14.21,-0.65,-90,0,0,0,0,1,0,0
75502415,3335666,17891,3,8.15,2.537,0.3,-1.843,-0.23,0.72,-1.96,-0.96,-1.41,-0.67,16.37,14.21,-0.65,-90,0,0,0,0,1,0,0
75519813,3353064,17398,3,8.15,2.565,0.296,-1.852,-0.24,1.17,-1.63,-1.01,-1.38,-0.66,16.37,14.21,-0.65,-90,0,0,0,0,1,0,0
75538288,3371539,18475,3,8.16,2.594,0.291,-1.863,-0.24,1.19,-1.62,-1.06,-1.32,-0.66,16.35,14.2,-0.65,-90,0,0,0,0,1,0,0
75555338,3388589,17050,3,8.18,2.619,0.287,-1.873,-0.22,0.84,-1.75,-1.13,-1.24,-0.66,16.33,14.21,-0.65,-90,0,0,0,0,1,0,0
75572520,3405771,17182,5,8.18,2.643,0.282,-1.887,-0.22,0.97,-1.75,-1.19,-1.19,-0.65,16.29,14.21,-0.65,-90,0,0,1,0,1,0,0
75589514,3422765,16994,5,8.16,2.667,0.278,-1.9,-8.55,1.84,-2.03,-1.19,-1.19,-0.65,16.28,14.22,-0.65,-90,0,0,1,0,0,0,0
75607244,3440495,17730,5,8.17,2.692,0.275,-1.915,-7.04,1.3,-0.91,-1.19,-1.19,-0.65,16.22,14.21,-0.65,-90,0,0,1,0,0,0,0
75624677,3457928,17433,5,8.17,2.715,0.27,-1.932,-2.14,0.96,0.35,-1.52,-1.11,-0.62,16.18,14.21,-0.65,-90,0,0,1,0,0,0,0
75642156,3475407,17479,5,8.17,2.738,0.268,-1.953,1.22,2.19,0.56,-1.56,-1.14,-0.59,16.15,14.24,-0.65,-90,0,0,1,0,0,0,0
75661636,3494887,19480,5,8.17,2.764,0.266,-1.973,1.06,1.8,-2.49,-1.11,-1.22,-0.53,16.07,14.27,-0.65,-90,0,0,1,0,0,0,0
75678446,3511697,16810,5,8.17,2.787,0.266,-1.986,-0.29,0.22,-1.05,-1.18,-1.13,-0.59,16.07,14.27,-0.65,-90,0,0,1,0,0,0,0
75696689,3529940,18243,5,8.17,2.811,0.265,-2.001,-0.7,2.35,-0.57,-1.24,-1.12,-0.58,16.04,14.29,-0.65,-90,0,0,1,0,0,0,0
75716554,3549805,19865,5,8.16,2.836,0.263,-2.019,-0.31,0.05,-2.13,-1.17,-1.01,-0.62,15.97,14.31,-0.65,-90,0,0,1,0,0,0,0
75733601,3566852,17047,5,8.15,2.856,0.26,-2.032,3.35,5.37,-2.65,-1.05,-0.95,-0.66,15.93,14.34,-0.65,-90,0,0,1,0,0,0,0
75750438,3583689,16837,5,8.17,2.875,0.259,-2.045,7.74,6.54,-2.7,-1.05,-0.84,-0.4,15.9,14.38,-0.65,-90,0,0,1,0,0,0,0
75767598,3600849,17160,5,8.14,2.886,0.262,-2.061,7.22,5.92,-5.27,-1.17,-0.51,0.13,15.85,14.4,-0.65,-90,0,0,1,0,0,0,0
75785010,3618261,17412,5,8.14,2.891,0.269,-2.081,7.71,-1.6,-4.6,-1.21,-0.36,0.23,15.83,14.42,-0.65,-90,0,0,1,0,0,0,0
75802389,3635640,17379,5,8.17,2.893,0.273,-2.1,10.1,7.67,-2.14,-1.06,-0.12,0.16,15.79,14.45,-0.65,-90,0,0,1,0,0,0,0
75819727,3652978,17338,5,8.17,2.89,0.277,-2.118,11.91,4.5,-9.74,-0.91,0.3,0.6,15.79,14.45,-0.65,-90,0,0,1,0,0,0,0
75836775,3670026,17048,5,8.16,2.876,0.283,-2.137,13.74,7.16,-3.23,-0.86,0.6,0.73,15.74,14.48,-0.65,-90,0,0,1,0,0,0,0
75853901,3687152,17126,5,8.16,2.856,0.29,-2.157,13.54,5.03,-5.89,-0.84,0.82,1.2,15.7,14.51,-0.65,-90,0,0,1,0,0,0,0
75871214,3704465,17313,5,8.18,2.828,0.299,-2.179,12.71,6.2,-5.87,-0.73,1.19,1.48,15.64,14.52,-0.65,-90,0,0,1,0,0,0,0
75889082,3722333,17868,5,8.17,2.79,0.309,-2.203,11.83,5.7,-5.05,-0.65,1.54,1.8,15.59,14.55,-0.65,-90,0,0,1,0,0,0,0
75906129,3739380,17047,5,8.17,2.747,0.318,-2.227,9.64,3.88,-5.21,-0.65,1.59,1.86,15.54,14.55,-0.65,-90,0,0,1,0,0,0,0
75924039,3757290,17910,5,8.17,2.697,0.324,-2.253,8.03,2.66,-5.57,-0.52,2.02,1.96,15.45,14.58,-0.65,-90,0,0,1,0,0,0,0
75940713,3773964,16674,5,8.17,2.645,0.325,-2.277,5.96,3.48,-2.8,-0.44,2.35,1.87,15.36,14.6,-0.65,-90,0,0,1,0,0,0,0
75958848,3792099,18135,5,8.17,2.588,0.321,-2.303,3.62,2.76,-3.25,-0.38,2.49,1.77,15.36,14.6,-0.65,-90,0,0,1,0,0,0,0
75977810,3811061,18962,5,8.17,2.527,0.313,-2.329,-2.86,4.31,-2.18,-0.36,2.58,1.68,15.28,14.57,-0.65,-90,0,0,1,0,0,0,0
75994859,3828110,17049,5,8.17,2.473,0.303,-2.352,-2.41,4.23,-3.44,-0.31,2.65,1.61,15.18,14.6,-0.65,-90,0,0,1,0,0,0,0
76011985,3845236,17126,5,8.17,2.419,0.289,-2.372,-2.58,4.4,-3.44,-0.23,2.76,1.53,15.1,14.61,-0.65,-90,0,0,1,0,0,0,0
76029195,3862446,17210,5,8.17,2.365,0.273,-2.391,-2.5,4.82,-3.76,-0.23,2.76,1.53,14.97,14.62,-0.65,-90,0,0,1,0,0,0,0
76046375,3879626,17180,5,8.17,2.312,0.253,-2.408,-2.45,4.46,-4.33,-0.11,2.93,1.33,14.81,14.62,-0.65,-90,0,0,1,0,0,0,0
76066184,3899435,19809,6,8.17,2.253,0.225,-2.423,-2.29,4.66,-5.14,-0.07,3.07,1.16,14.67,14.62,-0.65,-90,0,0,0,0,0,0,0
76083234,3916485,17050,6,8.17,2.202,0.198,-2.436,-2.28,4.87,-4.99,-0.13,3.14,1.1,14.54,14.62,-0.65,-90,0,0,0,0,1,0,0
76101073,3934324,17839,6,8.17,2.15,0.166,-2.447,-2.17,3.9,-5.47,-0.16,3.23,1.01,14.4,14.63,-0.65,-90,0,0,0,0,1,0,0
76118180,3951431,17107,6,8.17,2.101,0.134,-2.457,-1.7,4.09,-4.99,-0.15,3.26,0.96,14.4,14.63,-0.65,-90,0,0,0,0,1,0,0
76135529,3968780,17349,6,8.19,2.053,0.1,-2.466,-1.12,5.7,-4.71,-0.36,3.28,0.93,14.23,14.64,-0.65,-90,0,0,0,0,1,0,0
76152966,3986217,17437,6,8.17,2.004,0.066,-2.477,-1.09,6.89,-5.02,-0.5,3.29,1,14.05,14.63,-0.65,-90,0,0,0,0,1,0,0
76169808,4003059,16842,6,8.18,1.957,0.032,-2.488,-0.33,9.52,-6.72,-0.5,3.29,1,13.83,14.63,-0.65,-90,0,0,0,0,1,0,0
76186970,4020221,17162,6,8.17,1.903,-0.001,-2.499,-1.02,8.13,-7.62,-0.69,3.51,1.5,13.64,14.63,-0.65,-90,0,0,0,0,1,0,0
76205611,4038862,18641,6,8.18,1.84,-0.037,-2.511,-1.06,7.75,-5.62,-0.78,3.67,1.74,13.46,14.62,-0.65,-90,0,0,0,0,1,0,0
76223064,4056315,17453,6,8.18,1.776,-0.07,-2.522,-2.17,6.31,-5.38,-0.88,3.72,1.95,13.31,14.63,-0.65,-90,0,0,0,0,1,0,0
76239904,4073155,16840,6,8.18,1.712,-0.102,-2.531,-1.72,5.79,-5.19,-0.87,3.74,2.03,13.31,14.63,-0.65,-90,0,0,0,0,1,0,0
76258600,4091851,18696,6,8.18,1.639,-0.138,-2.538,-1.75,5.85,-4.69,-0.82,3.8,2.14,13.11,14.62,-0.65,-90,0,0,0,0,1,0,0
76275763,4109014,17163,6,8.17,1.57,-0.17,-2.541,-1.75,5.83,-3.35,-0.81,3.79,2.23,12.93,14.64,-0.65,-90,0,0,0,0,1,0,0
76293619,4126870,17856,6,8.16,1.498,-0.203,-2.542,-1.39,6.37,-3.63,-0.8,3.74,2.33,12.73,14.62,-0.65,-90,0,0,0,0,1,0,0
76310487,4143738,16868,6,8.18,1.428,-0.233,-2.541,-1.36,9.1,-4.5,-0.8,3.74,2.33,12.54,14.63,-0.65,-90,0,0,0,0,1,0,0
76327880,4161131,17393,6,8.18,1.352,-0.262,-2.537,-1.7,7.14,-3.91,-0.92,3.74,2.85,12.34,14.63,-0.65,-90,0,0,0,0,1,0,0
76345043,4178294,17163,6,8.17,1.272,-0.286,-2.532,-1.52,7.96,-4.14,-1.02,3.74,2.96,12.17,14.64,-0.65,-90,0,0,0,0,1,0,0
76364524,4197775,19481,6,8.17,1.175,-0.31,-2.525,-1.87,7.4,-2.72,-1.23,3.73,3.34,12.03,14.61,-0.65,-90,0,0,0,0,1,0,0
76384470,4217721,19946,6,8.17,1.073,-0.331,-2.517,-2.21,3.99,-1.7,-1.19,3.57,3.45,11.88,14.61,-0.65,-90,0,0,0,0,1,0,0
76401933,4235184,17463,6,8.19,0.982,-0.345,-2.508,-2.07,3.65,-0.93,-1.19,3.57,3.45,11.69,14.61,-0.65,-90,0,0,0,0,1,0,0
76419307,4252558,17374,6,8.19,0.892,-0.359,-2.497,-1.82,3.31,-0.22,-1.05,3.23,3.39,11.69,14.61,-0.65,-90,0,0,0,0,1,0,0
76436378,4269629,17071,6,8.18,0.808,-0.367,-2.485,-1.27,3.52,-0.37,-0.99,3.12,3.36,11.51,14.62,-0.65,-90,0,0,0,0,1,0,0
76453120,4286371,16742,6,8.17,0.727,-0.373,-2.471,-0.51,3.84,-0.46,-0.87,2.97,3.31,11.29,14.62,-0.65,-90,0,0,0,0,1,0,0
76470921,4304172,17801,6,8.18,0.642,-0.377,-2.455,0.66,3.81,0.67,-0.87,2.97,3.31,11.09,14.61,-0.65,-90,0,0,0,0,1,0,0
76490704,4323955,19783,6,8.18,0.549,-0.378,-2.436,0.2,2.25,0.55,-0.64,2.7,3.28,10.89,14.6,-0.65,-90,0,0,0,0,1,0,0
76507410,4340661,16706,6,8.16,0.474,-0.376,-2.418,-0.04,2.15,0.04,-0.57,2.63,3.2,10.66,14.6,-0.65,-90,0,0,0,0,1,0,0
76525140,4358391,17730,6,8.17,0.395,-0.373,-2.4,-0.1,1.68,0.19,-0.59,2.61,3.15,10.46,14.58,-0.65,-90,0,0,0,0,1,0,0
76542244,4375495,17104,6,8.18,0.321,-0.369,-2.383,-0.06,1.2,0.17,-0.6,2.6,3.14,10.24,14.6,-0.65,-90,0,0,0,0,1,0,0
76559668,4392919,17424,6,8.18,0.245,-0.364,-2.367,0.28,1.08,0.83,-0.65,2.56,3.05,10.24,14.6,-0.65,-90,0,0,0,0,1,0,0
76576870,4410121,17202,6,8.17,0.173,-0.358,-2.352,0.5,0.38,1.67,-0.65,2.52,3.01,10.05,14.58,-0.65,-90,0,0,0,0,1,0,0
76594651,4427902,17781,6,8.18,0.101,-0.351,-2.339,1.31,-0.43,2.92,-0.63,2.41,2.91,9.85,14.59,-0.65,-90,0,0,0,0,1,0,0
76611700,4444951,17049,6,8.16,0.033,-0.343,-2.326,3.04,-2.61,5.38,-0.55,2.19,2.75,9.64,14.59,-0.65,-90,0,0,0,0,1,0,0
76628826,4462077,17126,6,8.17,-0.027,-0.334,-2.316,4.08,-2.69,7.67,-0.56,1.96,2.56,9.43,14.58,-0.65,-90,0,0,0,0,1,0,0
76645875,4479126,17049,6,8.16,-0.08,-0.324,-2.309,4.31,-4.65,9.12,-0.63,1.49,2.29,9.21,14.58,-0.65,-90,0,0,0,0,1,0,0
76664446,4497697,18571,6,8.17,-0.131,-0.311,-2.304,5.66,-7.76,7.23,-0.63,1.49,2.29,9,14.57,-0.65,-90,0,0,0,0,1,0,0
76682986,4516237,18540,6,8.17,-0.177,-0.299,-2.303,6.57,-7.4,8.47,-0.69,0.54,1.18,8.79,14.58,-0.65,-90,0,0,0,0,1,0,0
76700035,4533286,17049,6,8.18,-0.193,-0.291,-2.313,5.52,-9.47,12.65,-1,0.24,0.84,8.59,14.57,-0.65,-90,0,0,0,0,1,0,0
76717947,4551198,17912,6,8.18,-0.194,-0.283,-2.34,5.16,-10.86,13.92,-2.1,-0.87,-0.24,8.59,14.57,-0.65,-90,0,0,0,0,1,0,0
76734692,4567943,16745,6,8.18,-0.174,-0.275,-2.384,5.62,-11.14,11.89,-2.82,-1.75,-1.24,8.38,14.56,-0.65,-90,0,0,0,0,1,0,0
76751990,4585241,17298,6,8.17,-0.132,-0.267,-2.445,6.04,-10.99,10.69,-2.99,-2.13,-1.77,8.11,14.55,-0.65,-90,0,0,0,0,1,0,0
76769418,4602669,17428,6,8.17,-0.069,-0.258,-2.519,4.7,-9.64,10.89,-3.58,-2.76,-2.82,7.84,14.57,-0.65,-90,0,0,0,0,1,0,0
76787329,4620580,17911,6,8.17,0.014,-0.246,-2.611,3.93,-8.74,9.3,-4.33,-3.34,-4.04,7.59,14.56,-0.65,-90,0,0,0,0,1,0,0
76804874,4638125,17545,6,8.18,0.112,-0.228,-2.712,3.3,-5.02,4.7,-4.58,-3.48,-4.68,7.34,14.55,-0.65,-90,0,0,0,0,1,0,0
76821569,4654820,16695,6,8.18,0.216,-0.206,-2.813,3.17,-2.14,2.08,-4.73,-3.43,-5.24,7.09,14.56,-0.65,-90,0,0,0,0,1,0,0
76838709,4671960,17140,6,8.18,0.322,-0.176,-2.914,3.41,2.3,0.08,-4.88,-2.96,-6.05,7.09,14.56,-0.65,-90,0,0,0,0,1,0,0
76856102,4689353,17393,6,8.17,0.437,-0.145,-3.018,3.14,3.67,-0.39,-4.86,-2.56,-6.28,6.88,14.56,-0.65,-90,0,0,0,0,1,0,0
76873541,4706792,17439,6,8.18,0.551,-0.113,-3.117,2.86,7.97,-2.03,-4.8,-2.06,-6.47,6.65,14.55,-0.65,-90,0,0,0,0,1,0,0
76890555,4723806,17014,6,8.17,0.661,-0.075,3.074,2.21,10.39,-2.7,-4.8,-2.06,-6.47,6.4,14.54,-0.65,-90,0,0,0,0,1,0,0
76907661,4740912,17106,6,8.18,0.767,-0.046,2.989,1.45,13.27,-2.44,-4.55,-0.75,-6.25,6.21,14.55,-0.65,-90,0,0,0,0,1,0,0
76924736,4757987,17075,6,8.16,0.868,-0.018,2.91,0.41,14.5,-3.2,-4.36,0.02,-5.8,6.08,14.55,-0.65,-90,0,0,0,0,1,0,0
76942227,4775478,17491,6,8.16,0.964,0.004,2.833,-0.25,14.2,-0.63,-4.29,0.39,-5.51,6.02,14.53,-0.65,-90,0,0,0,0,1,0,0
76959707,4792958,17480,6,8.16,1.055,0.026,2.76,-0.56,15.47,0.88,-4.25,0.6,-5.32,6.02,14.53,-0.65,-90,0,0,0,0,1,0,0
76976813,4810064,17106,6,8.16,1.14,0.049,2.692,-0.76,14.76,4.37,-4.17,0.92,-4.84,5.98,14.53,-0.65,-90,0,0,0,0,1,0,0
76995274,4828525,18461,6,8.18,1.225,0.074,2.62,-1.27,15.26,7.28,-4.06,0.97,-4.43,6.06,14.52,-0.65,-90,0,0,0,0,1,0,0
77015098,4848349,19824,6,8.17,1.308,0.104,2.549,-1.05,13.05,9.95,-3.74,0.79,-4.09,6.12,14.53,-0.65,-90,0,0,0,0,1,0,0
77033396,4866647,18298,6,8.18,1.373,0.136,2.495,-0.97,14.04,11.03,-3.11,0.55,-3.7,6.13,14.53,-0.65,-90,0,0,0,0,1,0,0
77050390,4883641,16994,6,8.17,1.428,0.167,2.451,-1.49,10.32,8.11,-3.11,0.55,-3.7,6.09,14.54,-0.65,-90,0,0,0,0,1,0,0
77068303,4901554,17913,6,8.16,1.478,0.202,2.426,-1.42,9.2,8.44,-1.39,0.22,-3.24,6.07,14.51,-0.65,-90,0,0,0,0,1,0,0
77087557,4920808,19254,6,8.17,1.526,0.24,2.424,-1.22,10.12,8.81,-0.03,-0.01,-2.99,6.03,14.51,-0.65,-90,0,0,0,0,1,0,0
